stimulus_id,stimulus,sentence,word,consonant_1,vowel,consonant_2,backness,height,place_1,place_2,trials.thisRepN,trials.thisTrialN,trials.thisN,trials.thisIndex,key_resp_2.keys,key_resp_2.rt,date,frameRate,expName,participant,
144,Ripete "cheto" da sempre,Ripete X da sempre,cheto,k,e,t,front,mid-high,velar,coronal,0,0,0,143,space,10.6556990147,2018_Aug_21_1124,60.557248006837824,italian-egg,it08,
10,Ha detto "pipo" sei volte,Ha detto X sei volte,pipo,p,i,p,front,high,labial,labial,0,1,1,9,space,2.52067399025,2018_Aug_21_1124,60.557248006837824,italian-egg,it08,
59,Sentivo "tapo" di nuovo,Sentivo X di nuovo,tapo,t,a,p,central,low,coronal,labial,0,2,2,58,space,2.20174884796,2018_Aug_21_1124,60.557248006837824,italian-egg,it08,
165,Scrivete "coco" sul foglio,Scrivete X sul foglio,coco,k,o,k,back,mid-low,velar,velar,0,3,3,164,space,2.15330910683,2018_Aug_21_1124,60.557248006837824,italian-egg,it08,
79,Sentivo "tato" di nuovo,Sentivo X di nuovo,tato,t,a,t,central,low,coronal,coronal,0,4,4,78,space,2.03620910645,2018_Aug_21_1124,60.557248006837824,italian-egg,it08,
13,Scrivete "popo" sul foglio,Scrivete X sul foglio,popo,p,o,p,back,mid-low,labial,labial,0,5,5,12,space,2.32132506371,2018_Aug_21_1124,60.557248006837824,italian-egg,it08,
75,Sentivo "tupo" di nuovo,Sentivo X di nuovo,tupo,t,u,p,back,high,coronal,labial,0,6,6,74,space,1.92037987709,2018_Aug_21_1124,60.557248006837824,italian-egg,it08,
133,Scrivete "cupo" sul foglio,Scrivete X sul foglio,cupo,k,u,p,back,high,velar,labial,0,7,7,132,space,2.26892709732,2018_Aug_21_1124,60.557248006837824,italian-egg,it08,
150,Ha detto "coto" sei volte,Ha detto X sei volte,coto,k,o,t,back,mid-low,velar,coronal,0,8,8,149,space,2.25306200981,2018_Aug_21_1124,60.557248006837824,italian-egg,it08,
136,Ripete "cupo" da sempre,Ripete X da sempre,cupo,k,u,p,back,high,velar,labial,0,9,9,135,space,2.65473222733,2018_Aug_21_1124,60.557248006837824,italian-egg,it08,
64,Ripete "tepo" da sempre,Ripete X da sempre,tepo,t,e,p,front,mid-high,coronal,labial,0,10,10,63,space,2.23643302917,2018_Aug_21_1124,60.557248006837824,italian-egg,it08,
116,Ripete "tuco" da sempre,Ripete X da sempre,tuco,t,u,k,back,high,coronal,velar,0,11,11,115,space,2.13668513298,2018_Aug_21_1124,60.557248006837824,italian-egg,it08,
151,Sentivo "coto" di nuovo,Sentivo X di nuovo,coto,k,o,t,back,mid-low,velar,coronal,0,12,12,150,space,2.05293917656,2018_Aug_21_1124,60.557248006837824,italian-egg,it08,
99,Sentivo "taco" di nuovo,Sentivo X di nuovo,taco,t,a,k,central,low,coronal,velar,0,13,13,98,space,1.95483803749,2018_Aug_21_1124,60.557248006837824,italian-egg,it08,
77,Scrivete "tato" sul foglio,Scrivete X sul foglio,tato,t,a,t,central,low,coronal,coronal,0,14,14,76,space,2.2860159874,2018_Aug_21_1124,60.557248006837824,italian-egg,it08,
53,Scrivete "puco" sul foglio,Scrivete X sul foglio,puco,p,u,k,back,high,labial,velar,0,15,15,52,space,1.85357189178,2018_Aug_21_1124,60.557248006837824,italian-egg,it08,
112,Ripete "toco" da sempre,Ripete X da sempre,toco,t,o,k,back,mid-low,coronal,velar,0,16,16,111,space,2.23406004906,2018_Aug_21_1124,60.557248006837824,italian-egg,it08,
43,Sentivo "peco" di nuovo,Sentivo X di nuovo,peco,p,e,k,front,mid-high,labial,velar,0,17,17,42,space,1.85365200043,2018_Aug_21_1124,60.557248006837824,italian-egg,it08,
96,Ripete "tuto" da sempre,Ripete X da sempre,tuto,t,u,t,back,high,coronal,coronal,0,18,18,95,space,1.90403103828,2018_Aug_21_1124,60.557248006837824,italian-egg,it08,
48,Ripete "pico" da sempre,Ripete X da sempre,pico,p,i,k,front,high,labial,velar,0,19,19,47,space,2.17197990417,2018_Aug_21_1124,60.557248006837824,italian-egg,it08,
74,Ha detto "tupo" sei volte,Ha detto X sei volte,tupo,t,u,p,back,high,coronal,labial,0,20,20,73,space,2.3048081398,2018_Aug_21_1124,60.557248006837824,italian-egg,it08,
172,Ripete "cuco" da sempre,Ripete X da sempre,cuco,k,u,k,back,high,velar,velar,0,21,21,171,space,1.88620901108,2018_Aug_21_1124,60.557248006837824,italian-egg,it08,
84,Ripete "teto" da sempre,Ripete X da sempre,teto,t,e,t,front,mid-high,coronal,coronal,0,22,22,83,space,1.96943306923,2018_Aug_21_1124,60.557248006837824,italian-egg,it08,
167,Sentivo "coco" di nuovo,Sentivo X di nuovo,coco,k,o,k,back,mid-low,velar,velar,0,23,23,166,space,1.85258388519,2018_Aug_21_1124,60.557248006837824,italian-egg,it08,
8,Ripete "pepo" da sempre,Ripete X da sempre,pepo,p,e,p,front,mid-high,labial,labial,0,24,24,7,space,1.66938900948,2018_Aug_21_1124,60.557248006837824,italian-egg,it08,
100,Ripete "taco" da sempre,Ripete X da sempre,taco,t,a,k,central,low,coronal,velar,0,25,25,99,space,2.03711009026,2018_Aug_21_1124,60.557248006837824,italian-egg,it08,
130,Ha detto "copo" sei volte,Ha detto X sei volte,copo,k,o,p,back,mid-low,velar,labial,0,26,26,129,space,2.03440904617,2018_Aug_21_1124,60.557248006837824,italian-egg,it08,
152,Ripete "coto" da sempre,Ripete X da sempre,coto,k,o,t,back,mid-low,velar,coronal,0,27,27,151,space,1.83685183525,2018_Aug_21_1124,60.557248006837824,italian-egg,it08,
47,Sentivo "pico" di nuovo,Sentivo X di nuovo,pico,p,i,k,front,high,labial,velar,0,28,28,46,space,1.81600284576,2018_Aug_21_1124,60.557248006837824,italian-egg,it08,
124,Ripete "chepo" da sempre,Ripete X da sempre,chepo,k,e,p,front,mid-high,velar,labial,0,29,29,123,space,1.65316605568,2018_Aug_21_1124,60.557248006837824,italian-egg,it08,
115,Sentivo "tuco" di nuovo,Sentivo X di nuovo,tuco,t,u,k,back,high,coronal,velar,0,30,30,114,space,1.82933998108,2018_Aug_21_1124,60.557248006837824,italian-egg,it08,
125,Scrivete "chipo" sul foglio,Scrivete X sul foglio,chipo,k,i,p,front,high,velar,labial,0,31,31,124,space,2.01981592178,2018_Aug_21_1124,60.557248006837824,italian-egg,it08,
89,Scrivete "toto" sul foglio,Scrivete X sul foglio,toto,t,o,t,back,mid-low,coronal,coronal,0,32,32,88,space,2.00418806076,2018_Aug_21_1124,60.557248006837824,italian-egg,it08,
55,Sentivo "puco" di nuovo,Sentivo X di nuovo,puco,p,u,k,back,high,labial,velar,0,33,33,54,space,1.6699590683,2018_Aug_21_1124,60.557248006837824,italian-egg,it08,
39,Sentivo "paco" di nuovo,Sentivo X di nuovo,paco,p,a,k,central,low,labial,velar,0,34,34,38,space,1.63520717621,2018_Aug_21_1124,60.557248006837824,italian-egg,it08,
1,Scrivete "papo" sul foglio,Scrivete X sul foglio,papo,p,a,p,central,low,labial,labial,0,35,35,0,space,2.1204969883,2018_Aug_21_1124,60.557248006837824,italian-egg,it08,
91,Sentivo "toto" di nuovo,Sentivo X di nuovo,toto,t,o,t,back,mid-low,coronal,coronal,0,36,36,90,space,1.90311813354,2018_Aug_21_1124,60.557248006837824,italian-egg,it08,
158,Ha detto "checo" sei volte,Ha detto X sei volte,checo,k,e,k,front,mid-high,velar,velar,0,37,37,157,space,2.03695392609,2018_Aug_21_1124,60.557248006837824,italian-egg,it08,
80,Ripete "tato" da sempre,Ripete X da sempre,tato,t,a,t,central,low,coronal,coronal,0,38,38,79,space,2.05372190475,2018_Aug_21_1124,60.557248006837824,italian-egg,it08,
118,Ha detto "capo" sei volte,Ha detto X sei volte,capo,k,a,p,central,low,velar,labial,0,39,39,117,space,1.71919488907,2018_Aug_21_1124,60.557248006837824,italian-egg,it08,
127,Sentivo "chipo" di nuovo,Sentivo X di nuovo,chipo,k,i,p,front,high,velar,labial,0,40,40,126,space,1.85142588615,2018_Aug_21_1124,60.557248006837824,italian-egg,it08,
137,Scrivete "cato" sul foglio,Scrivete X sul foglio,cato,k,a,t,central,low,velar,coronal,0,41,41,136,space,1.78672409058,2018_Aug_21_1124,60.557248006837824,italian-egg,it08,
23,Sentivo "pato" di nuovo,Sentivo X di nuovo,pato,p,a,t,central,low,labial,coronal,0,42,42,22,space,1.95262312889,2018_Aug_21_1124,60.557248006837824,italian-egg,it08,
41,Scrivete "peco" sul foglio,Scrivete X sul foglio,peco,p,e,k,front,mid-high,labial,velar,0,43,43,40,space,1.93685913086,2018_Aug_21_1124,60.557248006837824,italian-egg,it08,
97,Scrivete "taco" sul foglio,Scrivete X sul foglio,taco,t,a,k,central,low,coronal,velar,0,44,44,96,space,1.90255999565,2018_Aug_21_1124,60.557248006837824,italian-egg,it08,
102,Ha detto "teco" sei volte,Ha detto X sei volte,teco,t,e,k,front,mid-high,coronal,velar,0,45,45,101,space,2.18613004684,2018_Aug_21_1124,60.557248006837824,italian-egg,it08,
170,Ha detto "cuco" sei volte,Ha detto X sei volte,cuco,k,u,k,back,high,velar,velar,0,46,46,169,space,1.78713679314,2018_Aug_21_1124,60.557248006837824,italian-egg,it08,
40,Ripete "paco" da sempre,Ripete X da sempre,paco,p,a,k,central,low,labial,velar,0,47,47,39,space,2.30530905724,2018_Aug_21_1124,60.557248006837824,italian-egg,it08,
109,Scrivete "toco" sul foglio,Scrivete X sul foglio,toco,t,o,k,back,mid-low,coronal,velar,0,48,48,108,space,2.03705000877,2018_Aug_21_1124,60.557248006837824,italian-egg,it08,
169,Scrivete "cuco" sul foglio,Scrivete X sul foglio,cuco,k,u,k,back,high,velar,velar,0,49,49,168,space,1.98669195175,2018_Aug_21_1124,60.557248006837824,italian-egg,it08,
166,Ha detto "coco" sei volte,Ha detto X sei volte,coco,k,o,k,back,mid-low,velar,velar,0,50,50,165,space,1.95506381989,2018_Aug_21_1124,60.557248006837824,italian-egg,it08,
27,Sentivo "pito" di nuovo,Sentivo X di nuovo,pito,p,i,t,front,high,labial,coronal,0,51,51,26,space,1.83354187012,2018_Aug_21_1124,60.557248006837824,italian-egg,it08,
142,Ha detto "cheto" sei volte,Ha detto X sei volte,cheto,k,e,t,front,mid-high,velar,coronal,0,52,52,141,space,1.85396099091,2018_Aug_21_1124,60.557248006837824,italian-egg,it08,
163,Sentivo "chico" di nuovo,Sentivo X di nuovo,chico,k,i,k,front,high,velar,velar,0,53,53,162,space,1.88686800003,2018_Aug_21_1124,60.557248006837824,italian-egg,it08,
114,Ha detto "tuco" sei volte,Ha detto X sei volte,tuco,t,u,k,back,high,coronal,velar,0,54,54,113,space,2.01908111572,2018_Aug_21_1124,60.557248006837824,italian-egg,it08,
51,Sentivo "poco" di nuovo,Sentivo X di nuovo,poco,p,o,k,back,mid-low,labial,velar,0,55,55,50,space,1.83407211304,2018_Aug_21_1124,60.557248006837824,italian-egg,it08,
78,Ha detto "tato" sei volte,Ha detto X sei volte,tato,t,a,t,central,low,coronal,coronal,0,56,56,77,space,1.78605008125,2018_Aug_21_1124,60.557248006837824,italian-egg,it08,
153,Scrivete "cuto" sul foglio,Scrivete X sul foglio,cuto,k,u,t,back,high,velar,coronal,0,57,57,152,space,2.08764791489,2018_Aug_21_1124,60.557248006837824,italian-egg,it08,
168,Ripete "coco" da sempre,Ripete X da sempre,coco,k,o,k,back,mid-low,velar,velar,0,58,58,167,space,1.83771300316,2018_Aug_21_1124,60.557248006837824,italian-egg,it08,
103,Sentivo "teco" di nuovo,Sentivo X di nuovo,teco,t,e,k,front,mid-high,coronal,velar,0,59,59,102,space,1.9044508934,2018_Aug_21_1124,60.557248006837824,italian-egg,it08,
105,Scrivete "tico" sul foglio,Scrivete X sul foglio,tico,t,i,k,front,high,coronal,velar,0,60,60,104,space,1.98832392693,2018_Aug_21_1124,60.557248006837824,italian-egg,it08,
67,Sentivo "tipo" di nuovo,Sentivo X di nuovo,tipo,t,i,p,front,high,coronal,labial,0,61,61,66,space,1.83729815483,2018_Aug_21_1124,60.557248006837824,italian-egg,it08,
57,Scrivete "tapo" sul foglio,Scrivete X sul foglio,tapo,t,a,p,central,low,coronal,labial,0,62,62,56,space,1.78765892982,2018_Aug_21_1124,60.557248006837824,italian-egg,it08,
66,Ha detto "tipo" sei volte,Ha detto X sei volte,tipo,t,i,p,front,high,coronal,labial,0,63,63,65,space,2.07086610794,2018_Aug_21_1124,60.557248006837824,italian-egg,it08,
73,Scrivete "tupo" sul foglio,Scrivete X sul foglio,tupo,t,u,p,back,high,coronal,labial,0,64,64,72,space,1.96975803375,2018_Aug_21_1124,60.557248006837824,italian-egg,it08,
83,Sentivo "teto" di nuovo,Sentivo X di nuovo,teto,t,e,t,front,mid-high,coronal,coronal,0,65,65,82,space,1.80299401283,2018_Aug_21_1124,60.557248006837824,italian-egg,it08,
132,Ripete "copo" da sempre,Ripete X da sempre,copo,k,o,p,back,mid-low,velar,labial,0,66,66,131,space,1.97045612335,2018_Aug_21_1124,60.557248006837824,italian-egg,it08,
98,Ha detto "taco" sei volte,Ha detto X sei volte,taco,t,a,k,central,low,coronal,velar,0,67,67,97,space,1.88605809212,2018_Aug_21_1124,60.557248006837824,italian-egg,it08,
81,Scrivete "teto" sul foglio,Scrivete X sul foglio,teto,t,e,t,front,mid-high,coronal,coronal,0,68,68,80,space,2.12142896652,2018_Aug_21_1124,60.557248006837824,italian-egg,it08,
157,Scrivete "checo" sul foglio,Scrivete X sul foglio,checo,k,e,k,front,mid-high,velar,velar,0,69,69,156,space,2.03436398506,2018_Aug_21_1124,60.557248006837824,italian-egg,it08,
171,Sentivo "cuco" di nuovo,Sentivo X di nuovo,cuco,k,u,k,back,high,velar,velar,0,70,70,170,space,2.1374900341,2018_Aug_21_1124,60.557248006837824,italian-egg,it08,
143,Sentivo "cheto" di nuovo,Sentivo X di nuovo,cheto,k,e,t,front,mid-high,velar,coronal,0,71,71,142,space,1.70159602165,2018_Aug_21_1124,60.557248006837824,italian-egg,it08,
50,Ha detto "poco" sei volte,Ha detto X sei volte,poco,p,o,k,back,mid-low,labial,velar,0,72,72,49,space,1.88626503944,2018_Aug_21_1124,60.557248006837824,italian-egg,it08,
141,Scrivete "cheto" sul foglio,Scrivete X sul foglio,cheto,k,e,t,front,mid-high,velar,coronal,0,73,73,140,space,1.96962809563,2018_Aug_21_1124,60.557248006837824,italian-egg,it08,
22,Ha detto "pato" sei volte,Ha detto X sei volte,pato,p,a,t,central,low,labial,coronal,0,74,74,21,space,1.82047891617,2018_Aug_21_1124,60.557248006837824,italian-egg,it08,
76,Ripete "tupo" da sempre,Ripete X da sempre,tupo,t,u,p,back,high,coronal,labial,0,75,75,75,space,2.05365204811,2018_Aug_21_1124,60.557248006837824,italian-egg,it08,
119,Sentivo "capo" di nuovo,Sentivo X di nuovo,capo,k,a,p,central,low,velar,labial,0,76,76,118,space,1.52118492126,2018_Aug_21_1124,60.557248006837824,italian-egg,it08,
148,Ripete "chito" da sempre,Ripete X da sempre,chito,k,i,t,front,high,velar,coronal,0,77,77,147,space,1.98711490631,2018_Aug_21_1124,60.557248006837824,italian-egg,it08,
117,Scrivete "capo" sul foglio,Scrivete X sul foglio,capo,k,a,p,central,low,velar,labial,0,78,78,116,space,1.82185101509,2018_Aug_21_1124,60.557248006837824,italian-egg,it08,
46,Ha detto "pico" sei volte,Ha detto X sei volte,pico,p,i,k,front,high,labial,velar,0,79,79,45,space,1.8206410408,2018_Aug_21_1124,60.557248006837824,italian-egg,it08,
155,Sentivo "cuto" di nuovo,Sentivo X di nuovo,cuto,k,u,t,back,high,velar,coronal,0,80,80,154,space,1.7210021019,2018_Aug_21_1124,60.557248006837824,italian-egg,it08,
154,Ha detto "cuto" sei volte,Ha detto X sei volte,cuto,k,u,t,back,high,velar,coronal,0,81,81,153,space,2.00523900986,2018_Aug_21_1124,60.557248006837824,italian-egg,it08,
5,Scrivete "pepo" sul foglio,Scrivete X sul foglio,pepo,p,e,p,front,mid-high,labial,labial,0,82,82,4,space,1.93804192543,2018_Aug_21_1124,60.557248006837824,italian-egg,it08,
159,Sentivo "checo" di nuovo,Sentivo X di nuovo,checo,k,e,k,front,mid-high,velar,velar,0,83,83,158,space,1.83622097969,2018_Aug_21_1124,60.557248006837824,italian-egg,it08,
121,Scrivete "chepo" sul foglio,Scrivete X sul foglio,chepo,k,e,p,front,mid-high,velar,labial,0,84,84,120,space,1.92123198509,2018_Aug_21_1124,60.557248006837824,italian-egg,it08,
4,Ripete "papo" da sempre,Ripete X da sempre,papo,p,a,p,central,low,labial,labial,0,85,85,3,space,1.75319099426,2018_Aug_21_1124,60.557248006837824,italian-egg,it08,
90,Ha detto "toto" sei volte,Ha detto X sei volte,toto,t,o,t,back,mid-low,coronal,coronal,0,86,86,89,space,2.03540706635,2018_Aug_21_1124,60.557248006837824,italian-egg,it08,
113,Scrivete "tuco" sul foglio,Scrivete X sul foglio,tuco,t,u,k,back,high,coronal,velar,0,87,87,112,space,11.4083709717,2018_Aug_21_1124,60.557248006837824,italian-egg,it08,
161,Scrivete "chico" sul foglio,Scrivete X sul foglio,chico,k,i,k,front,high,velar,velar,0,88,88,160,space,1.98763990402,2018_Aug_21_1124,60.557248006837824,italian-egg,it08,
71,Sentivo "topo" di nuovo,Sentivo X di nuovo,topo,t,o,p,back,mid-low,coronal,labial,0,89,89,70,space,1.70314192772,2018_Aug_21_1124,60.557248006837824,italian-egg,it08,
60,Ripete "tapo" da sempre,Ripete X da sempre,tapo,t,a,p,central,low,coronal,labial,0,90,90,59,space,1.7369761467,2018_Aug_21_1124,60.557248006837824,italian-egg,it08,
129,Scrivete "copo" sul foglio,Scrivete X sul foglio,copo,k,o,p,back,mid-low,velar,labial,0,91,91,128,space,1.88764500618,2018_Aug_21_1124,60.557248006837824,italian-egg,it08,
131,Sentivo "copo" di nuovo,Sentivo X di nuovo,copo,k,o,p,back,mid-low,velar,labial,0,92,92,130,space,1.8378469944,2018_Aug_21_1124,60.557248006837824,italian-egg,it08,
72,Ripete "topo" da sempre,Ripete X da sempre,topo,t,o,p,back,mid-low,coronal,labial,0,93,93,71,space,1.68678307533,2018_Aug_21_1124,60.557248006837824,italian-egg,it08,
135,Sentivo "cupo" di nuovo,Sentivo X di nuovo,cupo,k,u,p,back,high,velar,labial,0,94,94,134,space,1.60415792465,2018_Aug_21_1124,60.557248006837824,italian-egg,it08,
6,Ha detto "pepo" sei volte,Ha detto X sei volte,pepo,p,e,p,front,mid-high,labial,labial,0,95,95,5,space,1.78818893433,2018_Aug_21_1124,60.557248006837824,italian-egg,it08,
126,Ha detto "chipo" sei volte,Ha detto X sei volte,chipo,k,i,p,front,high,velar,labial,0,96,96,125,space,2.00091695786,2018_Aug_21_1124,60.557248006837824,italian-egg,it08,
82,Ha detto "teto" sei volte,Ha detto X sei volte,teto,t,e,t,front,mid-high,coronal,coronal,0,97,97,81,space,1.72021508217,2018_Aug_21_1124,60.557248006837824,italian-egg,it08,
44,Ripete "peco" da sempre,Ripete X da sempre,peco,p,e,k,front,mid-high,labial,velar,0,98,98,43,space,1.70420193672,2018_Aug_21_1124,60.557248006837824,italian-egg,it08,
65,Scrivete "tipo" sul foglio,Scrivete X sul foglio,tipo,t,i,p,front,high,coronal,labial,0,99,99,64,space,1.95548987389,2018_Aug_21_1124,60.557248006837824,italian-egg,it08,
7,Sentivo "pepo" di nuovo,Sentivo X di nuovo,pepo,p,e,p,front,mid-high,labial,labial,0,100,100,6,space,1.62087988853,2018_Aug_21_1124,60.557248006837824,italian-egg,it08,
120,Ripete "capo" da sempre,Ripete X da sempre,capo,k,a,p,central,low,velar,labial,0,101,101,119,space,2.2719438076,2018_Aug_21_1124,60.557248006837824,italian-egg,it08,
70,Ha detto "topo" sei volte,Ha detto X sei volte,topo,t,o,p,back,mid-low,coronal,labial,0,102,102,69,space,2.12226200104,2018_Aug_21_1124,60.557248006837824,italian-egg,it08,
62,Ha detto "tepo" sei volte,Ha detto X sei volte,tepo,t,e,p,front,mid-high,coronal,labial,0,103,103,61,space,1.9207110405,2018_Aug_21_1124,60.557248006837824,italian-egg,it08,
123,Sentivo "chepo" di nuovo,Sentivo X di nuovo,chepo,k,e,p,front,mid-high,velar,labial,0,104,104,122,space,1.58843398094,2018_Aug_21_1124,60.557248006837824,italian-egg,it08,
38,Ha detto "paco" sei volte,Ha detto X sei volte,paco,p,a,k,central,low,labial,velar,0,105,105,37,space,1.75537204742,2018_Aug_21_1124,60.557248006837824,italian-egg,it08,
34,Ha detto "puto" sei volte,Ha detto X sei volte,puto,p,u,t,back,high,labial,coronal,0,106,106,33,space,1.8546090126,2018_Aug_21_1124,60.557248006837824,italian-egg,it08,
9,Scrivete "pipo" sul foglio,Scrivete X sul foglio,pipo,p,i,p,front,high,labial,labial,0,107,107,8,space,1.92116212845,2018_Aug_21_1124,60.557248006837824,italian-egg,it08,
111,Sentivo "toco" di nuovo,Sentivo X di nuovo,toco,t,o,k,back,mid-low,coronal,velar,0,108,108,110,space,1.72125005722,2018_Aug_21_1124,60.557248006837824,italian-egg,it08,
94,Ha detto "tuto" sei volte,Ha detto X sei volte,tuto,t,u,t,back,high,coronal,coronal,0,109,109,93,space,1.61840009689,2018_Aug_21_1124,60.557248006837824,italian-egg,it08,
58,Ha detto "tapo" sei volte,Ha detto X sei volte,tapo,t,a,p,central,low,coronal,labial,0,110,110,57,space,1.73639202118,2018_Aug_21_1124,60.557248006837824,italian-egg,it08,
146,Ha detto "chito" sei volte,Ha detto X sei volte,chito,k,i,t,front,high,velar,coronal,0,111,111,145,space,1.52109408379,2018_Aug_21_1124,60.557248006837824,italian-egg,it08,
28,Ripete "pito" da sempre,Ripete X da sempre,pito,p,i,t,front,high,labial,coronal,0,112,112,27,space,1.8704931736,2018_Aug_21_1124,60.557248006837824,italian-egg,it08,
101,Scrivete "teco" sul foglio,Scrivete X sul foglio,teco,t,e,k,front,mid-high,coronal,velar,0,113,113,100,space,1.68709492683,2018_Aug_21_1124,60.557248006837824,italian-egg,it08,
147,Sentivo "chito" di nuovo,Sentivo X di nuovo,chito,k,i,t,front,high,velar,coronal,0,114,114,146,space,1.65409493446,2018_Aug_21_1124,60.557248006837824,italian-egg,it08,
107,Sentivo "tico" di nuovo,Sentivo X di nuovo,tico,t,i,k,front,high,coronal,velar,0,115,115,106,space,1.72124695778,2018_Aug_21_1124,60.557248006837824,italian-egg,it08,
19,Sentivo "pupo" di nuovo,Sentivo X di nuovo,pupo,p,u,p,back,high,labial,labial,0,116,116,18,space,1.60390090942,2018_Aug_21_1124,60.557248006837824,italian-egg,it08,
31,Sentivo "poto" di nuovo,Sentivo X di nuovo,poto,p,o,t,back,mid-low,labial,coronal,0,117,117,30,space,1.57184815407,2018_Aug_21_1124,60.557248006837824,italian-egg,it08,
15,Sentivo "popo" di nuovo,Sentivo X di nuovo,popo,p,o,p,back,mid-low,labial,labial,0,118,118,14,space,1.52049279213,2018_Aug_21_1124,60.557248006837824,italian-egg,it08,
138,Ha detto "cato" sei volte,Ha detto X sei volte,cato,k,a,t,central,low,velar,coronal,0,119,119,137,space,1.93405818939,2018_Aug_21_1124,60.557248006837824,italian-egg,it08,
92,Ripete "toto" da sempre,Ripete X da sempre,toto,t,o,t,back,mid-low,coronal,coronal,0,120,120,91,space,1.68683195114,2018_Aug_21_1124,60.557248006837824,italian-egg,it08,
164,Ripete "chico" da sempre,Ripete X da sempre,chico,k,i,k,front,high,velar,velar,0,121,121,163,space,1.55098104477,2018_Aug_21_1124,60.557248006837824,italian-egg,it08,
45,Scrivete "pico" sul foglio,Scrivete X sul foglio,pico,p,i,k,front,high,labial,velar,0,122,122,44,space,1.81943511963,2018_Aug_21_1124,60.557248006837824,italian-egg,it08,
35,Sentivo "puto" di nuovo,Sentivo X di nuovo,puto,p,u,t,back,high,labial,coronal,0,123,123,34,space,1.55197787285,2018_Aug_21_1124,60.557248006837824,italian-egg,it08,
160,Ripete "checo" da sempre,Ripete X da sempre,checo,k,e,k,front,mid-high,velar,velar,0,124,124,159,space,1.70405578613,2018_Aug_21_1124,60.557248006837824,italian-egg,it08,
36,Ripete "puto" da sempre,Ripete X da sempre,puto,p,u,t,back,high,labial,coronal,0,125,125,35,space,1.75373291969,2018_Aug_21_1124,60.557248006837824,italian-egg,it08,
88,Ripete "tito" da sempre,Ripete X da sempre,tito,t,i,t,front,high,coronal,coronal,0,126,126,87,space,1.72066521645,2018_Aug_21_1124,60.557248006837824,italian-egg,it08,
20,Ripete "pupo" da sempre,Ripete X da sempre,pupo,p,u,p,back,high,labial,labial,0,127,127,19,space,1.73837709427,2018_Aug_21_1124,60.557248006837824,italian-egg,it08,
11,Sentivo "pipo" di nuovo,Sentivo X di nuovo,pipo,p,i,p,front,high,labial,labial,0,128,128,10,space,1.553647995,2018_Aug_21_1124,60.557248006837824,italian-egg,it08,
12,Ripete "pipo" da sempre,Ripete X da sempre,pipo,p,i,p,front,high,labial,labial,0,129,129,11,space,1.55339312553,2018_Aug_21_1124,60.557248006837824,italian-egg,it08,
3,Sentivo "papo" di nuovo,Sentivo X di nuovo,papo,p,a,p,central,low,labial,labial,0,130,130,2,space,1.70409703255,2018_Aug_21_1124,60.557248006837824,italian-egg,it08,
14,Ha detto "popo" sei volte,Ha detto X sei volte,popo,p,o,p,back,mid-low,labial,labial,0,131,131,13,space,1.75507593155,2018_Aug_21_1124,60.557248006837824,italian-egg,it08,
17,Scrivete "pupo" sul foglio,Scrivete X sul foglio,pupo,p,u,p,back,high,labial,labial,0,132,132,16,space,1.97206687927,2018_Aug_21_1124,60.557248006837824,italian-egg,it08,
61,Scrivete "tepo" sul foglio,Scrivete X sul foglio,tepo,t,e,p,front,mid-high,coronal,labial,0,133,133,60,space,1.67098498344,2018_Aug_21_1124,60.557248006837824,italian-egg,it08,
145,Scrivete "chito" sul foglio,Scrivete X sul foglio,chito,k,i,t,front,high,velar,coronal,0,134,134,144,space,1.90143799782,2018_Aug_21_1124,60.557248006837824,italian-egg,it08,
95,Sentivo "tuto" di nuovo,Sentivo X di nuovo,tuto,t,u,t,back,high,coronal,coronal,0,135,135,94,space,1.83724808693,2018_Aug_21_1124,60.557248006837824,italian-egg,it08,
21,Scrivete "pato" sul foglio,Scrivete X sul foglio,pato,p,a,t,central,low,labial,coronal,0,136,136,20,space,1.62154722214,2018_Aug_21_1124,60.557248006837824,italian-egg,it08,
16,Ripete "popo" da sempre,Ripete X da sempre,popo,p,o,p,back,mid-low,labial,labial,0,137,137,15,space,1.87266898155,2018_Aug_21_1124,60.557248006837824,italian-egg,it08,
30,Ha detto "poto" sei volte,Ha detto X sei volte,poto,p,o,t,back,mid-low,labial,coronal,0,138,138,29,space,1.60449314117,2018_Aug_21_1124,60.557248006837824,italian-egg,it08,
18,Ha detto "pupo" sei volte,Ha detto X sei volte,pupo,p,u,p,back,high,labial,labial,0,139,139,17,space,1.77146482468,2018_Aug_21_1124,60.557248006837824,italian-egg,it08,
104,Ripete "teco" da sempre,Ripete X da sempre,teco,t,e,k,front,mid-high,coronal,velar,0,140,140,103,space,1.50520515442,2018_Aug_21_1124,60.557248006837824,italian-egg,it08,
162,Ha detto "chico" sei volte,Ha detto X sei volte,chico,k,i,k,front,high,velar,velar,0,141,141,161,space,1.73794698715,2018_Aug_21_1124,60.557248006837824,italian-egg,it08,
29,Scrivete "poto" sul foglio,Scrivete X sul foglio,poto,p,o,t,back,mid-low,labial,coronal,0,142,142,28,space,1.8232820034,2018_Aug_21_1124,60.557248006837824,italian-egg,it08,
32,Ripete "poto" da sempre,Ripete X da sempre,poto,p,o,t,back,mid-low,labial,coronal,0,143,143,31,space,1.67259907722,2018_Aug_21_1124,60.557248006837824,italian-egg,it08,
63,Sentivo "tepo" di nuovo,Sentivo X di nuovo,tepo,t,e,p,front,mid-high,coronal,labial,0,144,144,62,space,1.60380792618,2018_Aug_21_1124,60.557248006837824,italian-egg,it08,
93,Scrivete "tuto" sul foglio,Scrivete X sul foglio,tuto,t,u,t,back,high,coronal,coronal,0,145,145,92,space,1.78831100464,2018_Aug_21_1124,60.557248006837824,italian-egg,it08,
42,Ha detto "peco" sei volte,Ha detto X sei volte,peco,p,e,k,front,mid-high,labial,velar,0,146,146,41,space,1.75488901138,2018_Aug_21_1124,60.557248006837824,italian-egg,it08,
140,Ripete "cato" da sempre,Ripete X da sempre,cato,k,a,t,central,low,velar,coronal,0,147,147,139,space,1.85548114777,2018_Aug_21_1124,60.557248006837824,italian-egg,it08,
108,Ripete "tico" da sempre,Ripete X da sempre,tico,t,i,k,front,high,coronal,velar,0,148,148,107,space,1.90485882759,2018_Aug_21_1124,60.557248006837824,italian-egg,it08,
134,Ha detto "cupo" sei volte,Ha detto X sei volte,cupo,k,u,p,back,high,velar,labial,0,149,149,133,space,1.92297101021,2018_Aug_21_1124,60.557248006837824,italian-egg,it08,
49,Scrivete "poco" sul foglio,Scrivete X sul foglio,poco,p,o,k,back,mid-low,labial,velar,0,150,150,48,space,1.85472798347,2018_Aug_21_1124,60.557248006837824,italian-egg,it08,
68,Ripete "tipo" da sempre,Ripete X da sempre,tipo,t,i,p,front,high,coronal,labial,0,151,151,67,space,1.47133588791,2018_Aug_21_1124,60.557248006837824,italian-egg,it08,
86,Ha detto "tito" sei volte,Ha detto X sei volte,tito,t,i,t,front,high,coronal,coronal,0,152,152,85,space,1.58803987503,2018_Aug_21_1124,60.557248006837824,italian-egg,it08,
149,Scrivete "coto" sul foglio,Scrivete X sul foglio,coto,k,o,t,back,mid-low,velar,coronal,0,153,153,148,space,1.62175583839,2018_Aug_21_1124,60.557248006837824,italian-egg,it08,
106,Ha detto "tico" sei volte,Ha detto X sei volte,tico,t,i,k,front,high,coronal,velar,0,154,154,105,space,1.38683986664,2018_Aug_21_1124,60.557248006837824,italian-egg,it08,
2,Ha detto "papo" sei volte,Ha detto X sei volte,papo,p,a,p,central,low,labial,labial,0,155,155,1,space,1.50413107872,2018_Aug_21_1124,60.557248006837824,italian-egg,it08,
156,Ripete "cuto" da sempre,Ripete X da sempre,cuto,k,u,t,back,high,velar,coronal,0,156,156,155,space,1.77131009102,2018_Aug_21_1124,60.557248006837824,italian-egg,it08,
87,Sentivo "tito" di nuovo,Sentivo X di nuovo,tito,t,i,t,front,high,coronal,coronal,0,157,157,86,space,1.48783016205,2018_Aug_21_1124,60.557248006837824,italian-egg,it08,
33,Scrivete "puto" sul foglio,Scrivete X sul foglio,puto,p,u,t,back,high,labial,coronal,0,158,158,32,space,1.63717913628,2018_Aug_21_1124,60.557248006837824,italian-egg,it08,
139,Sentivo "cato" di nuovo,Sentivo X di nuovo,cato,k,a,t,central,low,velar,coronal,0,159,159,138,space,1.58615493774,2018_Aug_21_1124,60.557248006837824,italian-egg,it08,
37,Scrivete "paco" sul foglio,Scrivete X sul foglio,paco,p,a,k,central,low,labial,velar,0,160,160,36,space,1.63715195656,2018_Aug_21_1124,60.557248006837824,italian-egg,it08,
25,Scrivete "pito" sul foglio,Scrivete X sul foglio,pito,p,i,t,front,high,labial,coronal,0,161,161,24,space,1.58817386627,2018_Aug_21_1124,60.557248006837824,italian-egg,it08,
52,Ripete "poco" da sempre,Ripete X da sempre,poco,p,o,k,back,mid-low,labial,velar,0,162,162,51,space,1.70448803902,2018_Aug_21_1124,60.557248006837824,italian-egg,it08,
85,Scrivete "tito" sul foglio,Scrivete X sul foglio,tito,t,i,t,front,high,coronal,coronal,0,163,163,84,space,1.82043194771,2018_Aug_21_1124,60.557248006837824,italian-egg,it08,
56,Ripete "puco" da sempre,Ripete X da sempre,puco,p,u,k,back,high,labial,velar,0,164,164,55,space,1.65249204636,2018_Aug_21_1124,60.557248006837824,italian-egg,it08,
24,Ripete "pato" da sempre,Ripete X da sempre,pato,p,a,t,central,low,labial,coronal,0,165,165,23,space,1.80420708656,2018_Aug_21_1124,60.557248006837824,italian-egg,it08,
128,Ripete "chipo" da sempre,Ripete X da sempre,chipo,k,i,p,front,high,velar,labial,0,166,166,127,space,1.75460290909,2018_Aug_21_1124,60.557248006837824,italian-egg,it08,
110,Ha detto "toco" sei volte,Ha detto X sei volte,toco,t,o,k,back,mid-low,coronal,velar,0,167,167,109,space,1.73766303062,2018_Aug_21_1124,60.557248006837824,italian-egg,it08,
54,Ha detto "puco" sei volte,Ha detto X sei volte,puco,p,u,k,back,high,labial,velar,0,168,168,53,space,1.40413403511,2018_Aug_21_1124,60.557248006837824,italian-egg,it08,
26,Ha detto "pito" sei volte,Ha detto X sei volte,pito,p,i,t,front,high,labial,coronal,0,169,169,25,space,1.57073998451,2018_Aug_21_1124,60.557248006837824,italian-egg,it08,
122,Ha detto "chepo" sei volte,Ha detto X sei volte,chepo,k,e,p,front,mid-high,velar,labial,0,170,170,121,space,1.53619813919,2018_Aug_21_1124,60.557248006837824,italian-egg,it08,
69,Scrivete "topo" sul foglio,Scrivete X sul foglio,topo,t,o,p,back,mid-low,coronal,labial,0,171,171,68,space,1.65684199333,2018_Aug_21_1124,60.557248006837824,italian-egg,it08,
