stimulus_id,stimulus,sentence,word,consonant_1,vowel,consonant_2,backness,height,place_1,place_2,trials.thisRepN,trials.thisTrialN,trials.thisN,trials.thisIndex,key_resp_2.keys,key_resp_2.rt,date,frameRate,expName,participant,
51,Sentivo "poco" di nuovo,Sentivo X di nuovo,poco,p,o,k,back,mid-low,labial,velar,0,0,0,50,space,2.33745002747,2018_Aug_23_1113,59.77610525760723,italian-egg,it09,
163,Sentivo "chico" di nuovo,Sentivo X di nuovo,chico,k,i,k,front,high,velar,velar,0,1,1,162,space,4.47084116936,2018_Aug_23_1113,59.77610525760723,italian-egg,it09,
9,Scrivete "pipo" sul foglio,Scrivete X sul foglio,pipo,p,i,p,front,high,labial,labial,0,2,2,8,space,2.13535404205,2018_Aug_23_1113,59.77610525760723,italian-egg,it09,
115,Sentivo "tuco" di nuovo,Sentivo X di nuovo,tuco,t,u,k,back,high,coronal,velar,0,3,3,114,space,2.07101917267,2018_Aug_23_1113,59.77610525760723,italian-egg,it09,
65,Scrivete "tipo" sul foglio,Scrivete X sul foglio,tipo,t,i,p,front,high,coronal,labial,0,4,4,64,space,2.35297107697,2018_Aug_23_1113,59.77610525760723,italian-egg,it09,
58,Ha detto "tapo" sei volte,Ha detto X sei volte,tapo,t,a,p,central,low,coronal,labial,0,5,5,57,space,2.1875269413,2018_Aug_23_1113,59.77610525760723,italian-egg,it09,
119,Sentivo "capo" di nuovo,Sentivo X di nuovo,capo,k,a,p,central,low,velar,labial,0,6,6,118,space,1.77046322823,2018_Aug_23_1113,59.77610525760723,italian-egg,it09,
104,Ripete "teco" da sempre,Ripete X da sempre,teco,t,e,k,front,mid-high,coronal,velar,0,7,7,103,space,1.87028408051,2018_Aug_23_1113,59.77610525760723,italian-egg,it09,
117,Scrivete "capo" sul foglio,Scrivete X sul foglio,capo,k,a,p,central,low,velar,labial,0,8,8,116,space,2.052090168,2018_Aug_23_1113,59.77610525760723,italian-egg,it09,
149,Scrivete "coto" sul foglio,Scrivete X sul foglio,coto,k,o,t,back,mid-low,velar,coronal,0,9,9,148,space,1.85388684273,2018_Aug_23_1113,59.77610525760723,italian-egg,it09,
81,Scrivete "teto" sul foglio,Scrivete X sul foglio,teto,t,e,t,front,mid-high,coronal,coronal,0,10,10,80,space,1.90204596519,2018_Aug_23_1113,59.77610525760723,italian-egg,it09,
111,Sentivo "toco" di nuovo,Sentivo X di nuovo,toco,t,o,k,back,mid-low,coronal,velar,0,11,11,110,space,1.78690099716,2018_Aug_23_1113,59.77610525760723,italian-egg,it09,
127,Sentivo "chipo" di nuovo,Sentivo X di nuovo,chipo,k,i,p,front,high,velar,labial,0,12,12,126,space,1.93663787842,2018_Aug_23_1113,59.77610525760723,italian-egg,it09,
75,Sentivo "tupo" di nuovo,Sentivo X di nuovo,tupo,t,u,p,back,high,coronal,labial,0,13,13,74,space,1.7183380127,2018_Aug_23_1113,59.77610525760723,italian-egg,it09,
130,Ha detto "copo" sei volte,Ha detto X sei volte,copo,k,o,p,back,mid-low,velar,labial,0,14,14,129,space,1.48692011833,2018_Aug_23_1113,59.77610525760723,italian-egg,it09,
7,Sentivo "pepo" di nuovo,Sentivo X di nuovo,pepo,p,e,p,front,mid-high,labial,labial,0,15,15,6,space,1.76933407784,2018_Aug_23_1113,59.77610525760723,italian-egg,it09,
96,Ripete "tuto" da sempre,Ripete X da sempre,tuto,t,u,t,back,high,coronal,coronal,0,16,16,95,space,1.95274806023,2018_Aug_23_1113,59.77610525760723,italian-egg,it09,
138,Ha detto "cato" sei volte,Ha detto X sei volte,cato,k,a,t,central,low,velar,coronal,0,17,17,137,space,2.03725886345,2018_Aug_23_1113,59.77610525760723,italian-egg,it09,
82,Ha detto "teto" sei volte,Ha detto X sei volte,teto,t,e,t,front,mid-high,coronal,coronal,0,18,18,81,space,1.93529486656,2018_Aug_23_1113,59.77610525760723,italian-egg,it09,
28,Ripete "pito" da sempre,Ripete X da sempre,pito,p,i,t,front,high,labial,coronal,0,19,19,27,space,1.80111312866,2018_Aug_23_1113,59.77610525760723,italian-egg,it09,
33,Scrivete "puto" sul foglio,Scrivete X sul foglio,puto,p,u,t,back,high,labial,coronal,0,20,20,32,space,1.95321297646,2018_Aug_23_1113,59.77610525760723,italian-egg,it09,
159,Sentivo "checo" di nuovo,Sentivo X di nuovo,checo,k,e,k,front,mid-high,velar,velar,0,21,21,158,space,1.67007708549,2018_Aug_23_1113,59.77610525760723,italian-egg,it09,
73,Scrivete "tupo" sul foglio,Scrivete X sul foglio,tupo,t,u,p,back,high,coronal,labial,0,22,22,72,space,1.81997203827,2018_Aug_23_1113,59.77610525760723,italian-egg,it09,
145,Scrivete "chito" sul foglio,Scrivete X sul foglio,chito,k,i,t,front,high,velar,coronal,0,23,23,144,space,1.92093396187,2018_Aug_23_1113,59.77610525760723,italian-egg,it09,
109,Scrivete "toco" sul foglio,Scrivete X sul foglio,toco,t,o,k,back,mid-low,coronal,velar,0,24,24,108,space,2.11992406845,2018_Aug_23_1113,59.77610525760723,italian-egg,it09,
102,Ha detto "teco" sei volte,Ha detto X sei volte,teco,t,e,k,front,mid-high,coronal,velar,0,25,25,101,space,1.73682188988,2018_Aug_23_1113,59.77610525760723,italian-egg,it09,
55,Sentivo "puco" di nuovo,Sentivo X di nuovo,puco,p,u,k,back,high,labial,velar,0,26,26,54,space,1.73651313782,2018_Aug_23_1113,59.77610525760723,italian-egg,it09,
41,Scrivete "peco" sul foglio,Scrivete X sul foglio,peco,p,e,k,front,mid-high,labial,velar,0,27,27,40,space,2.02061700821,2018_Aug_23_1113,59.77610525760723,italian-egg,it09,
99,Sentivo "taco" di nuovo,Sentivo X di nuovo,taco,t,a,k,central,low,coronal,velar,0,28,28,98,space,1.80392289162,2018_Aug_23_1113,59.77610525760723,italian-egg,it09,
144,Ripete "cheto" da sempre,Ripete X da sempre,cheto,k,e,t,front,mid-high,velar,coronal,0,29,29,143,space,2.06959700584,2018_Aug_23_1113,59.77610525760723,italian-egg,it09,
165,Scrivete "coco" sul foglio,Scrivete X sul foglio,coco,k,o,k,back,mid-low,velar,velar,0,30,30,164,space,2.03568506241,2018_Aug_23_1113,59.77610525760723,italian-egg,it09,
46,Ha detto "pico" sei volte,Ha detto X sei volte,pico,p,i,k,front,high,labial,velar,0,31,31,45,space,2.08653688431,2018_Aug_23_1113,59.77610525760723,italian-egg,it09,
95,Sentivo "tuto" di nuovo,Sentivo X di nuovo,tuto,t,u,t,back,high,coronal,coronal,0,32,32,94,space,3.9547958374,2018_Aug_23_1113,59.77610525760723,italian-egg,it09,
155,Sentivo "cuto" di nuovo,Sentivo X di nuovo,cuto,k,u,t,back,high,velar,coronal,0,33,33,154,space,1.75253200531,2018_Aug_23_1113,59.77610525760723,italian-egg,it09,
67,Sentivo "tipo" di nuovo,Sentivo X di nuovo,tipo,t,i,p,front,high,coronal,labial,0,34,34,66,space,1.56906485558,2018_Aug_23_1113,59.77610525760723,italian-egg,it09,
17,Scrivete "pupo" sul foglio,Scrivete X sul foglio,pupo,p,u,p,back,high,labial,labial,0,35,35,16,space,1.8697810173,2018_Aug_23_1113,59.77610525760723,italian-egg,it09,
123,Sentivo "chepo" di nuovo,Sentivo X di nuovo,chepo,k,e,p,front,mid-high,velar,labial,0,36,36,122,space,1.63662195206,2018_Aug_23_1113,59.77610525760723,italian-egg,it09,
59,Sentivo "tapo" di nuovo,Sentivo X di nuovo,tapo,t,a,p,central,low,coronal,labial,0,37,37,58,space,1.5014538765,2018_Aug_23_1113,59.77610525760723,italian-egg,it09,
100,Ripete "taco" da sempre,Ripete X da sempre,taco,t,a,k,central,low,coronal,velar,0,38,38,99,space,1.72029399872,2018_Aug_23_1113,59.77610525760723,italian-egg,it09,
135,Sentivo "cupo" di nuovo,Sentivo X di nuovo,cupo,k,u,p,back,high,velar,labial,0,39,39,134,space,1.60242700577,2018_Aug_23_1113,59.77610525760723,italian-egg,it09,
42,Ha detto "peco" sei volte,Ha detto X sei volte,peco,p,e,k,front,mid-high,labial,velar,0,40,40,41,space,1.87037611008,2018_Aug_23_1113,59.77610525760723,italian-egg,it09,
76,Ripete "tupo" da sempre,Ripete X da sempre,tupo,t,u,p,back,high,coronal,labial,0,41,41,75,space,1.80140900612,2018_Aug_23_1113,59.77610525760723,italian-egg,it09,
89,Scrivete "toto" sul foglio,Scrivete X sul foglio,toto,t,o,t,back,mid-low,coronal,coronal,0,42,42,88,space,1.92023420334,2018_Aug_23_1113,59.77610525760723,italian-egg,it09,
147,Sentivo "chito" di nuovo,Sentivo X di nuovo,chito,k,i,t,front,high,velar,coronal,0,43,43,146,space,1.57045793533,2018_Aug_23_1113,59.77610525760723,italian-egg,it09,
113,Scrivete "tuco" sul foglio,Scrivete X sul foglio,tuco,t,u,k,back,high,coronal,velar,0,44,44,112,space,1.72034716606,2018_Aug_23_1113,59.77610525760723,italian-egg,it09,
20,Ripete "pupo" da sempre,Ripete X da sempre,pupo,p,u,p,back,high,labial,labial,0,45,45,19,space,1.6716940403,2018_Aug_23_1113,59.77610525760723,italian-egg,it09,
106,Ha detto "tico" sei volte,Ha detto X sei volte,tico,t,i,k,front,high,coronal,velar,0,46,46,105,space,1.88722586632,2018_Aug_23_1113,59.77610525760723,italian-egg,it09,
23,Sentivo "pato" di nuovo,Sentivo X di nuovo,pato,p,a,t,central,low,labial,coronal,0,47,47,22,space,1.77058410645,2018_Aug_23_1113,59.77610525760723,italian-egg,it09,
108,Ripete "tico" da sempre,Ripete X da sempre,tico,t,i,k,front,high,coronal,velar,0,48,48,107,space,1.90293002129,2018_Aug_23_1113,59.77610525760723,italian-egg,it09,
34,Ha detto "puto" sei volte,Ha detto X sei volte,puto,p,u,t,back,high,labial,coronal,0,49,49,33,space,1.73546099663,2018_Aug_23_1113,59.77610525760723,italian-egg,it09,
134,Ha detto "cupo" sei volte,Ha detto X sei volte,cupo,k,u,p,back,high,velar,labial,0,50,50,133,space,1.75197792053,2018_Aug_23_1113,59.77610525760723,italian-egg,it09,
43,Sentivo "peco" di nuovo,Sentivo X di nuovo,peco,p,e,k,front,mid-high,labial,velar,0,51,51,42,space,1.53494691849,2018_Aug_23_1113,59.77610525760723,italian-egg,it09,
22,Ha detto "pato" sei volte,Ha detto X sei volte,pato,p,a,t,central,low,labial,coronal,0,52,52,21,space,2.00380897522,2018_Aug_23_1113,59.77610525760723,italian-egg,it09,
74,Ha detto "tupo" sei volte,Ha detto X sei volte,tupo,t,u,p,back,high,coronal,labial,0,53,53,73,space,1.71671295166,2018_Aug_23_1113,59.77610525760723,italian-egg,it09,
8,Ripete "pepo" da sempre,Ripete X da sempre,pepo,p,e,p,front,mid-high,labial,labial,0,54,54,7,space,1.81978201866,2018_Aug_23_1113,59.77610525760723,italian-egg,it09,
143,Sentivo "cheto" di nuovo,Sentivo X di nuovo,cheto,k,e,t,front,mid-high,velar,coronal,0,55,55,142,space,1.63490009308,2018_Aug_23_1113,59.77610525760723,italian-egg,it09,
166,Ha detto "coco" sei volte,Ha detto X sei volte,coco,k,o,k,back,mid-low,velar,velar,0,56,56,165,space,1.65279698372,2018_Aug_23_1113,59.77610525760723,italian-egg,it09,
87,Sentivo "tito" di nuovo,Sentivo X di nuovo,tito,t,i,t,front,high,coronal,coronal,0,57,57,86,space,1.48625206947,2018_Aug_23_1113,59.77610525760723,italian-egg,it09,
30,Ha detto "poto" sei volte,Ha detto X sei volte,poto,p,o,t,back,mid-low,labial,coronal,0,58,58,29,space,1.70378804207,2018_Aug_23_1113,59.77610525760723,italian-egg,it09,
80,Ripete "tato" da sempre,Ripete X da sempre,tato,t,a,t,central,low,coronal,coronal,0,59,59,79,space,1.88650202751,2018_Aug_23_1113,59.77610525760723,italian-egg,it09,
91,Sentivo "toto" di nuovo,Sentivo X di nuovo,toto,t,o,t,back,mid-low,coronal,coronal,0,60,60,90,space,1.55185198784,2018_Aug_23_1113,59.77610525760723,italian-egg,it09,
56,Ripete "puco" da sempre,Ripete X da sempre,puco,p,u,k,back,high,labial,velar,0,61,61,55,space,1.68674516678,2018_Aug_23_1113,59.77610525760723,italian-egg,it09,
53,Scrivete "puco" sul foglio,Scrivete X sul foglio,puco,p,u,k,back,high,labial,velar,0,62,62,52,space,1.83547711372,2018_Aug_23_1113,59.77610525760723,italian-egg,it09,
1,Scrivete "papo" sul foglio,Scrivete X sul foglio,papo,p,a,p,central,low,labial,labial,0,63,63,0,space,1.71733784676,2018_Aug_23_1113,59.77610525760723,italian-egg,it09,
27,Sentivo "pito" di nuovo,Sentivo X di nuovo,pito,p,i,t,front,high,labial,coronal,0,64,64,26,space,1.57065677643,2018_Aug_23_1113,59.77610525760723,italian-egg,it09,
164,Ripete "chico" da sempre,Ripete X da sempre,chico,k,i,k,front,high,velar,velar,0,65,65,163,space,1.5182030201,2018_Aug_23_1113,59.77610525760723,italian-egg,it09,
15,Sentivo "popo" di nuovo,Sentivo X di nuovo,popo,p,o,p,back,mid-low,labial,labial,0,66,66,14,space,1.45341396332,2018_Aug_23_1113,59.77610525760723,italian-egg,it09,
31,Sentivo "poto" di nuovo,Sentivo X di nuovo,poto,p,o,t,back,mid-low,labial,coronal,0,67,67,30,space,1.53656482697,2018_Aug_23_1113,59.77610525760723,italian-egg,it09,
72,Ripete "topo" da sempre,Ripete X da sempre,topo,t,o,p,back,mid-low,coronal,labial,0,68,68,71,space,1.67166495323,2018_Aug_23_1113,59.77610525760723,italian-egg,it09,
118,Ha detto "capo" sei volte,Ha detto X sei volte,capo,k,a,p,central,low,velar,labial,0,69,69,117,space,1.68638014793,2018_Aug_23_1113,59.77610525760723,italian-egg,it09,
26,Ha detto "pito" sei volte,Ha detto X sei volte,pito,p,i,t,front,high,labial,coronal,0,70,70,25,space,1.71272182465,2018_Aug_23_1113,59.77610525760723,italian-egg,it09,
114,Ha detto "tuco" sei volte,Ha detto X sei volte,tuco,t,u,k,back,high,coronal,velar,0,71,71,113,space,1.7374048233,2018_Aug_23_1113,59.77610525760723,italian-egg,it09,
150,Ha detto "coto" sei volte,Ha detto X sei volte,coto,k,o,t,back,mid-low,velar,coronal,0,72,72,149,space,1.67015504837,2018_Aug_23_1113,59.77610525760723,italian-egg,it09,
64,Ripete "tepo" da sempre,Ripete X da sempre,tepo,t,e,p,front,mid-high,coronal,labial,0,73,73,63,space,1.79414606094,2018_Aug_23_1113,59.77610525760723,italian-egg,it09,
24,Ripete "pato" da sempre,Ripete X da sempre,pato,p,a,t,central,low,labial,coronal,0,74,74,23,space,1.72050905228,2018_Aug_23_1113,59.77610525760723,italian-egg,it09,
121,Scrivete "chepo" sul foglio,Scrivete X sul foglio,chepo,k,e,p,front,mid-high,velar,labial,0,75,75,120,space,1.78619408607,2018_Aug_23_1113,59.77610525760723,italian-egg,it09,
157,Scrivete "checo" sul foglio,Scrivete X sul foglio,checo,k,e,k,front,mid-high,velar,velar,0,76,76,156,space,1.81577277184,2018_Aug_23_1113,59.77610525760723,italian-egg,it09,
2,Ha detto "papo" sei volte,Ha detto X sei volte,papo,p,a,p,central,low,labial,labial,0,77,77,1,space,1.7816119194,2018_Aug_23_1113,59.77610525760723,italian-egg,it09,
63,Sentivo "tepo" di nuovo,Sentivo X di nuovo,tepo,t,e,p,front,mid-high,coronal,labial,0,78,78,62,space,1.47074198723,2018_Aug_23_1113,59.77610525760723,italian-egg,it09,
105,Scrivete "tico" sul foglio,Scrivete X sul foglio,tico,t,i,k,front,high,coronal,velar,0,79,79,104,space,1.9212911129,2018_Aug_23_1113,59.77610525760723,italian-egg,it09,
29,Scrivete "poto" sul foglio,Scrivete X sul foglio,poto,p,o,t,back,mid-low,labial,coronal,0,80,80,28,space,1.95288705826,2018_Aug_23_1113,59.77610525760723,italian-egg,it09,
152,Ripete "coto" da sempre,Ripete X da sempre,coto,k,o,t,back,mid-low,velar,coronal,0,81,81,151,space,1.75462388992,2018_Aug_23_1113,59.77610525760723,italian-egg,it09,
120,Ripete "capo" da sempre,Ripete X da sempre,capo,k,a,p,central,low,velar,labial,0,82,82,119,space,1.62106513977,2018_Aug_23_1113,59.77610525760723,italian-egg,it09,
60,Ripete "tapo" da sempre,Ripete X da sempre,tapo,t,a,p,central,low,coronal,labial,0,83,83,59,space,1.53878712654,2018_Aug_23_1113,59.77610525760723,italian-egg,it09,
3,Sentivo "papo" di nuovo,Sentivo X di nuovo,papo,p,a,p,central,low,labial,labial,0,84,84,2,space,1.37300181389,2018_Aug_23_1113,59.77610525760723,italian-egg,it09,
167,Sentivo "coco" di nuovo,Sentivo X di nuovo,coco,k,o,k,back,mid-low,velar,velar,0,85,85,166,space,1.50541806221,2018_Aug_23_1113,59.77610525760723,italian-egg,it09,
61,Scrivete "tepo" sul foglio,Scrivete X sul foglio,tepo,t,e,p,front,mid-high,coronal,labial,0,86,86,60,space,1.7377140522,2018_Aug_23_1113,59.77610525760723,italian-egg,it09,
79,Sentivo "tato" di nuovo,Sentivo X di nuovo,tato,t,a,t,central,low,coronal,coronal,0,87,87,78,space,1.55463290215,2018_Aug_23_1113,59.77610525760723,italian-egg,it09,
151,Sentivo "coto" di nuovo,Sentivo X di nuovo,coto,k,o,t,back,mid-low,velar,coronal,0,88,88,150,space,2.00409984589,2018_Aug_23_1113,59.77610525760723,italian-egg,it09,
88,Ripete "tito" da sempre,Ripete X da sempre,tito,t,i,t,front,high,coronal,coronal,0,89,89,87,space,9.00650405884,2018_Aug_23_1113,59.77610525760723,italian-egg,it09,
98,Ha detto "taco" sei volte,Ha detto X sei volte,taco,t,a,k,central,low,coronal,velar,0,90,90,97,space,1.88662815094,2018_Aug_23_1113,59.77610525760723,italian-egg,it09,
132,Ripete "copo" da sempre,Ripete X da sempre,copo,k,o,p,back,mid-low,velar,labial,0,91,91,131,space,1.7377538681,2018_Aug_23_1113,59.77610525760723,italian-egg,it09,
107,Sentivo "tico" di nuovo,Sentivo X di nuovo,tico,t,i,k,front,high,coronal,velar,0,92,92,106,space,1.53687381744,2018_Aug_23_1113,59.77610525760723,italian-egg,it09,
125,Scrivete "chipo" sul foglio,Scrivete X sul foglio,chipo,k,i,p,front,high,velar,labial,0,93,93,124,space,1.82033085823,2018_Aug_23_1113,59.77610525760723,italian-egg,it09,
146,Ha detto "chito" sei volte,Ha detto X sei volte,chito,k,i,t,front,high,velar,coronal,0,94,94,145,space,1.70358991623,2018_Aug_23_1113,59.77610525760723,italian-egg,it09,
140,Ripete "cato" da sempre,Ripete X da sempre,cato,k,a,t,central,low,velar,coronal,0,95,95,139,space,1.82011795044,2018_Aug_23_1113,59.77610525760723,italian-egg,it09,
137,Scrivete "cato" sul foglio,Scrivete X sul foglio,cato,k,a,t,central,low,velar,coronal,0,96,96,136,space,1.7697019577,2018_Aug_23_1113,59.77610525760723,italian-egg,it09,
21,Scrivete "pato" sul foglio,Scrivete X sul foglio,pato,p,a,t,central,low,labial,coronal,0,97,97,20,space,1.72022414207,2018_Aug_23_1113,59.77610525760723,italian-egg,it09,
93,Scrivete "tuto" sul foglio,Scrivete X sul foglio,tuto,t,u,t,back,high,coronal,coronal,0,98,98,92,space,1.66715502739,2018_Aug_23_1113,59.77610525760723,italian-egg,it09,
32,Ripete "poto" da sempre,Ripete X da sempre,poto,p,o,t,back,mid-low,labial,coronal,0,99,99,31,space,1.55355501175,2018_Aug_23_1113,59.77610525760723,italian-egg,it09,
44,Ripete "peco" da sempre,Ripete X da sempre,peco,p,e,k,front,mid-high,labial,velar,0,100,100,43,space,1.51633787155,2018_Aug_23_1113,59.77610525760723,italian-egg,it09,
161,Scrivete "chico" sul foglio,Scrivete X sul foglio,chico,k,i,k,front,high,velar,velar,0,101,101,160,space,1.72047591209,2018_Aug_23_1113,59.77610525760723,italian-egg,it09,
45,Scrivete "pico" sul foglio,Scrivete X sul foglio,pico,p,i,k,front,high,labial,velar,0,102,102,44,space,1.58574700356,2018_Aug_23_1113,59.77610525760723,italian-egg,it09,
50,Ha detto "poco" sei volte,Ha detto X sei volte,poco,p,o,k,back,mid-low,labial,velar,0,103,103,49,space,1.71813392639,2018_Aug_23_1113,59.77610525760723,italian-egg,it09,
14,Ha detto "popo" sei volte,Ha detto X sei volte,popo,p,o,p,back,mid-low,labial,labial,0,104,104,13,space,1.60383987427,2018_Aug_23_1113,59.77610525760723,italian-egg,it09,
19,Sentivo "pupo" di nuovo,Sentivo X di nuovo,pupo,p,u,p,back,high,labial,labial,0,105,105,18,space,1.55224204063,2018_Aug_23_1113,59.77610525760723,italian-egg,it09,
70,Ha detto "topo" sei volte,Ha detto X sei volte,topo,t,o,p,back,mid-low,coronal,labial,0,106,106,69,space,1.75353980064,2018_Aug_23_1113,59.77610525760723,italian-egg,it09,
124,Ripete "chepo" da sempre,Ripete X da sempre,chepo,k,e,p,front,mid-high,velar,labial,0,107,107,123,space,1.70310688019,2018_Aug_23_1113,59.77610525760723,italian-egg,it09,
13,Scrivete "popo" sul foglio,Scrivete X sul foglio,popo,p,o,p,back,mid-low,labial,labial,0,108,108,12,space,1.6704621315,2018_Aug_23_1113,59.77610525760723,italian-egg,it09,
5,Scrivete "pepo" sul foglio,Scrivete X sul foglio,pepo,p,e,p,front,mid-high,labial,labial,0,109,109,4,space,1.55371713638,2018_Aug_23_1113,59.77610525760723,italian-egg,it09,
158,Ha detto "checo" sei volte,Ha detto X sei volte,checo,k,e,k,front,mid-high,velar,velar,0,110,110,157,space,1.60367012024,2018_Aug_23_1113,59.77610525760723,italian-egg,it09,
84,Ripete "teto" da sempre,Ripete X da sempre,teto,t,e,t,front,mid-high,coronal,coronal,0,111,111,83,space,1.58680987358,2018_Aug_23_1113,59.77610525760723,italian-egg,it09,
35,Sentivo "puto" di nuovo,Sentivo X di nuovo,puto,p,u,t,back,high,labial,coronal,0,112,112,34,space,3.7863509655,2018_Aug_23_1113,59.77610525760723,italian-egg,it09,
39,Sentivo "paco" di nuovo,Sentivo X di nuovo,paco,p,a,k,central,low,labial,velar,0,113,113,38,space,1.56918787956,2018_Aug_23_1113,59.77610525760723,italian-egg,it09,
52,Ripete "poco" da sempre,Ripete X da sempre,poco,p,o,k,back,mid-low,labial,velar,0,114,114,51,space,1.70448303223,2018_Aug_23_1113,59.77610525760723,italian-egg,it09,
170,Ha detto "cuco" sei volte,Ha detto X sei volte,cuco,k,u,k,back,high,velar,velar,0,115,115,169,space,3.58649492264,2018_Aug_23_1113,59.77610525760723,italian-egg,it09,
6,Ha detto "pepo" sei volte,Ha detto X sei volte,pepo,p,e,p,front,mid-high,labial,labial,0,116,116,5,space,1.6694419384,2018_Aug_23_1113,59.77610525760723,italian-egg,it09,
133,Scrivete "cupo" sul foglio,Scrivete X sul foglio,cupo,k,u,p,back,high,velar,labial,0,117,117,132,space,1.8201520443,2018_Aug_23_1113,59.77610525760723,italian-egg,it09,
10,Ha detto "pipo" sei volte,Ha detto X sei volte,pipo,p,i,p,front,high,labial,labial,0,118,118,9,space,1.51980900764,2018_Aug_23_1113,59.77610525760723,italian-egg,it09,
168,Ripete "coco" da sempre,Ripete X da sempre,coco,k,o,k,back,mid-low,velar,velar,0,119,119,167,space,1.65379500389,2018_Aug_23_1113,59.77610525760723,italian-egg,it09,
122,Ha detto "chepo" sei volte,Ha detto X sei volte,chepo,k,e,p,front,mid-high,velar,labial,0,120,120,121,space,1.57137584686,2018_Aug_23_1113,59.77610525760723,italian-egg,it09,
62,Ha detto "tepo" sei volte,Ha detto X sei volte,tepo,t,e,p,front,mid-high,coronal,labial,0,121,121,61,space,1.63893890381,2018_Aug_23_1113,59.77610525760723,italian-egg,it09,
66,Ha detto "tipo" sei volte,Ha detto X sei volte,tipo,t,i,p,front,high,coronal,labial,0,122,122,65,space,1.57128095627,2018_Aug_23_1113,59.77610525760723,italian-egg,it09,
160,Ripete "checo" da sempre,Ripete X da sempre,checo,k,e,k,front,mid-high,velar,velar,0,123,123,159,space,1.58831000328,2018_Aug_23_1113,59.77610525760723,italian-egg,it09,
49,Scrivete "poco" sul foglio,Scrivete X sul foglio,poco,p,o,k,back,mid-low,labial,velar,0,124,124,48,space,1.82284212112,2018_Aug_23_1113,59.77610525760723,italian-egg,it09,
40,Ripete "paco" da sempre,Ripete X da sempre,paco,p,a,k,central,low,labial,velar,0,125,125,39,space,1.57012200356,2018_Aug_23_1113,59.77610525760723,italian-egg,it09,
141,Scrivete "cheto" sul foglio,Scrivete X sul foglio,cheto,k,e,t,front,mid-high,velar,coronal,0,126,126,140,space,1.52176809311,2018_Aug_23_1113,59.77610525760723,italian-egg,it09,
16,Ripete "popo" da sempre,Ripete X da sempre,popo,p,o,p,back,mid-low,labial,labial,0,127,127,15,space,1.47110891342,2018_Aug_23_1113,59.77610525760723,italian-egg,it09,
171,Sentivo "cuco" di nuovo,Sentivo X di nuovo,cuco,k,u,k,back,high,velar,velar,0,128,128,170,space,1.53756093979,2018_Aug_23_1113,59.77610525760723,italian-egg,it09,
25,Scrivete "pito" sul foglio,Scrivete X sul foglio,pito,p,i,t,front,high,labial,coronal,0,129,129,24,space,1.50388097763,2018_Aug_23_1113,59.77610525760723,italian-egg,it09,
71,Sentivo "topo" di nuovo,Sentivo X di nuovo,topo,t,o,p,back,mid-low,coronal,labial,0,130,130,70,space,1.45497703552,2018_Aug_23_1113,59.77610525760723,italian-egg,it09,
83,Sentivo "teto" di nuovo,Sentivo X di nuovo,teto,t,e,t,front,mid-high,coronal,coronal,0,131,131,82,space,1.45540904999,2018_Aug_23_1113,59.77610525760723,italian-egg,it09,
18,Ha detto "pupo" sei volte,Ha detto X sei volte,pupo,p,u,p,back,high,labial,labial,0,132,132,17,space,1.57213902473,2018_Aug_23_1113,59.77610525760723,italian-egg,it09,
154,Ha detto "cuto" sei volte,Ha detto X sei volte,cuto,k,u,t,back,high,velar,coronal,0,133,133,153,space,1.42030882835,2018_Aug_23_1113,59.77610525760723,italian-egg,it09,
129,Scrivete "copo" sul foglio,Scrivete X sul foglio,copo,k,o,p,back,mid-low,velar,labial,0,134,134,128,space,1.60300302505,2018_Aug_23_1113,59.77610525760723,italian-egg,it09,
12,Ripete "pipo" da sempre,Ripete X da sempre,pipo,p,i,p,front,high,labial,labial,0,135,135,11,space,1.5704240799,2018_Aug_23_1113,59.77610525760723,italian-egg,it09,
37,Scrivete "paco" sul foglio,Scrivete X sul foglio,paco,p,a,k,central,low,labial,velar,0,136,136,36,space,1.63825201988,2018_Aug_23_1113,59.77610525760723,italian-egg,it09,
77,Scrivete "tato" sul foglio,Scrivete X sul foglio,tato,t,a,t,central,low,coronal,coronal,0,137,137,76,space,1.81998682022,2018_Aug_23_1113,59.77610525760723,italian-egg,it09,
54,Ha detto "puco" sei volte,Ha detto X sei volte,puco,p,u,k,back,high,labial,velar,0,138,138,53,space,1.63671302795,2018_Aug_23_1113,59.77610525760723,italian-egg,it09,
11,Sentivo "pipo" di nuovo,Sentivo X di nuovo,pipo,p,i,p,front,high,labial,labial,0,139,139,10,space,1.48706483841,2018_Aug_23_1113,59.77610525760723,italian-egg,it09,
36,Ripete "puto" da sempre,Ripete X da sempre,puto,p,u,t,back,high,labial,coronal,0,140,140,35,space,1.55328297615,2018_Aug_23_1113,59.77610525760723,italian-egg,it09,
139,Sentivo "cato" di nuovo,Sentivo X di nuovo,cato,k,a,t,central,low,velar,coronal,0,141,141,138,space,1.63759207726,2018_Aug_23_1113,59.77610525760723,italian-egg,it09,
57,Scrivete "tapo" sul foglio,Scrivete X sul foglio,tapo,t,a,p,central,low,coronal,labial,0,142,142,56,space,2.27081108093,2018_Aug_23_1113,59.77610525760723,italian-egg,it09,
156,Ripete "cuto" da sempre,Ripete X da sempre,cuto,k,u,t,back,high,velar,coronal,0,143,143,155,space,1.56888484955,2018_Aug_23_1113,59.77610525760723,italian-egg,it09,
97,Scrivete "taco" sul foglio,Scrivete X sul foglio,taco,t,a,k,central,low,coronal,velar,0,144,144,96,space,2.03792715073,2018_Aug_23_1113,59.77610525760723,italian-egg,it09,
110,Ha detto "toco" sei volte,Ha detto X sei volte,toco,t,o,k,back,mid-low,coronal,velar,0,145,145,109,space,1.62218213081,2018_Aug_23_1113,59.77610525760723,italian-egg,it09,
136,Ripete "cupo" da sempre,Ripete X da sempre,cupo,k,u,p,back,high,velar,labial,0,146,146,135,space,1.50440883636,2018_Aug_23_1113,59.77610525760723,italian-egg,it09,
128,Ripete "chipo" da sempre,Ripete X da sempre,chipo,k,i,p,front,high,velar,labial,0,147,147,127,space,1.56983709335,2018_Aug_23_1113,59.77610525760723,italian-egg,it09,
116,Ripete "tuco" da sempre,Ripete X da sempre,tuco,t,u,k,back,high,coronal,velar,0,148,148,115,space,1.78713703156,2018_Aug_23_1113,59.77610525760723,italian-egg,it09,
86,Ha detto "tito" sei volte,Ha detto X sei volte,tito,t,i,t,front,high,coronal,coronal,0,149,149,85,space,1.87022805214,2018_Aug_23_1113,59.77610525760723,italian-egg,it09,
47,Sentivo "pico" di nuovo,Sentivo X di nuovo,pico,p,i,k,front,high,labial,velar,0,150,150,46,space,1.387362957,2018_Aug_23_1113,59.77610525760723,italian-egg,it09,
94,Ha detto "tuto" sei volte,Ha detto X sei volte,tuto,t,u,t,back,high,coronal,coronal,0,151,151,93,space,1.58792495728,2018_Aug_23_1113,59.77610525760723,italian-egg,it09,
112,Ripete "toco" da sempre,Ripete X da sempre,toco,t,o,k,back,mid-low,coronal,velar,0,152,152,111,space,1.58834815025,2018_Aug_23_1113,59.77610525760723,italian-egg,it09,
48,Ripete "pico" da sempre,Ripete X da sempre,pico,p,i,k,front,high,labial,velar,0,153,153,47,space,1.48697900772,2018_Aug_23_1113,59.77610525760723,italian-egg,it09,
85,Scrivete "tito" sul foglio,Scrivete X sul foglio,tito,t,i,t,front,high,coronal,coronal,0,154,154,84,space,1.705286026,2018_Aug_23_1113,59.77610525760723,italian-egg,it09,
101,Scrivete "teco" sul foglio,Scrivete X sul foglio,teco,t,e,k,front,mid-high,coronal,velar,0,155,155,100,space,1.58566403389,2018_Aug_23_1113,59.77610525760723,italian-egg,it09,
172,Ripete "cuco" da sempre,Ripete X da sempre,cuco,k,u,k,back,high,velar,velar,0,156,156,171,space,1.53460597992,2018_Aug_23_1113,59.77610525760723,italian-egg,it09,
69,Scrivete "topo" sul foglio,Scrivete X sul foglio,topo,t,o,p,back,mid-low,coronal,labial,0,157,157,68,space,1.57075405121,2018_Aug_23_1113,59.77610525760723,italian-egg,it09,
103,Sentivo "teco" di nuovo,Sentivo X di nuovo,teco,t,e,k,front,mid-high,coronal,velar,0,158,158,102,space,1.5879099369,2018_Aug_23_1113,59.77610525760723,italian-egg,it09,
92,Ripete "toto" da sempre,Ripete X da sempre,toto,t,o,t,back,mid-low,coronal,coronal,0,159,159,91,space,1.50354599953,2018_Aug_23_1113,59.77610525760723,italian-egg,it09,
131,Sentivo "copo" di nuovo,Sentivo X di nuovo,copo,k,o,p,back,mid-low,velar,labial,0,160,160,130,space,1.43764305115,2018_Aug_23_1113,59.77610525760723,italian-egg,it09,
126,Ha detto "chipo" sei volte,Ha detto X sei volte,chipo,k,i,p,front,high,velar,labial,0,161,161,125,space,1.63774991035,2018_Aug_23_1113,59.77610525760723,italian-egg,it09,
78,Ha detto "tato" sei volte,Ha detto X sei volte,tato,t,a,t,central,low,coronal,coronal,0,162,162,77,space,1.886947155,2018_Aug_23_1113,59.77610525760723,italian-egg,it09,
142,Ha detto "cheto" sei volte,Ha detto X sei volte,cheto,k,e,t,front,mid-high,velar,coronal,0,163,163,141,space,1.48731207848,2018_Aug_23_1113,59.77610525760723,italian-egg,it09,
153,Scrivete "cuto" sul foglio,Scrivete X sul foglio,cuto,k,u,t,back,high,velar,coronal,0,164,164,152,space,1.80361700058,2018_Aug_23_1113,59.77610525760723,italian-egg,it09,
68,Ripete "tipo" da sempre,Ripete X da sempre,tipo,t,i,p,front,high,coronal,labial,0,165,165,67,space,1.57080602646,2018_Aug_23_1113,59.77610525760723,italian-egg,it09,
162,Ha detto "chico" sei volte,Ha detto X sei volte,chico,k,i,k,front,high,velar,velar,0,166,166,161,space,1.73544192314,2018_Aug_23_1113,59.77610525760723,italian-egg,it09,
38,Ha detto "paco" sei volte,Ha detto X sei volte,paco,p,a,k,central,low,labial,velar,0,167,167,37,space,1.65392112732,2018_Aug_23_1113,59.77610525760723,italian-egg,it09,
169,Scrivete "cuco" sul foglio,Scrivete X sul foglio,cuco,k,u,k,back,high,velar,velar,0,168,168,168,space,1.63881897926,2018_Aug_23_1113,59.77610525760723,italian-egg,it09,
148,Ripete "chito" da sempre,Ripete X da sempre,chito,k,i,t,front,high,velar,coronal,0,169,169,147,space,1.57311606407,2018_Aug_23_1113,59.77610525760723,italian-egg,it09,
90,Ha detto "toto" sei volte,Ha detto X sei volte,toto,t,o,t,back,mid-low,coronal,coronal,0,170,170,89,space,1.3896818161,2018_Aug_23_1113,59.77610525760723,italian-egg,it09,
4,Ripete "papo" da sempre,Ripete X da sempre,papo,p,a,p,central,low,labial,labial,0,171,171,3,space,1.45300197601,2018_Aug_23_1113,59.77610525760723,italian-egg,it09,
