stimulus_id,stimulus,sentence,word,consonant_1,vowel,consonant_2,backness,height,place_1,place_2,trials.thisRepN,trials.thisTrialN,trials.thisN,trials.thisIndex,key_resp_2.keys,key_resp_2.rt,date,frameRate,expName,participant,
107,Sentivo "tico" di nuovo,Sentivo X di nuovo,tico,t,i,k,front,high,coronal,velar,0,0,0,106,space,3.13410615921,2018_Aug_29_1424,60.14563538383441,italian-egg,it13,
1,Scrivete "papo" sul foglio,Scrivete X sul foglio,papo,p,a,p,central,low,labial,labial,0,1,1,0,space,2.62174105644,2018_Aug_29_1424,60.14563538383441,italian-egg,it13,
102,Ha detto "teco" sei volte,Ha detto X sei volte,teco,t,e,k,front,mid-high,coronal,velar,0,2,2,101,space,2.36991405487,2018_Aug_29_1424,60.14563538383441,italian-egg,it13,
13,Scrivete "popo" sul foglio,Scrivete X sul foglio,popo,p,o,p,back,mid-low,labial,labial,0,3,3,12,space,20.9960751534,2018_Aug_29_1424,60.14563538383441,italian-egg,it13,
35,Sentivo "puto" di nuovo,Sentivo X di nuovo,puto,p,u,t,back,high,labial,coronal,0,4,4,34,space,2.2206890583,2018_Aug_29_1424,60.14563538383441,italian-egg,it13,
118,Ha detto "capo" sei volte,Ha detto X sei volte,capo,k,a,p,central,low,velar,labial,0,5,5,117,space,2.17127203941,2018_Aug_29_1424,60.14563538383441,italian-egg,it13,
154,Ha detto "cuto" sei volte,Ha detto X sei volte,cuto,k,u,t,back,high,velar,coronal,0,6,6,153,space,2.11995482445,2018_Aug_29_1424,60.14563538383441,italian-egg,it13,
141,Scrivete "cheto" sul foglio,Scrivete X sul foglio,cheto,k,e,t,front,mid-high,velar,coronal,0,7,7,140,space,2.17077708244,2018_Aug_29_1424,60.14563538383441,italian-egg,it13,
61,Scrivete "tepo" sul foglio,Scrivete X sul foglio,tepo,t,e,p,front,mid-high,coronal,labial,0,8,8,60,space,2.15429186821,2018_Aug_29_1424,60.14563538383441,italian-egg,it13,
168,Ripete "coco" da sempre,Ripete X da sempre,coco,k,o,k,back,mid-low,velar,velar,0,9,9,167,space,4.9549601078,2018_Aug_29_1424,60.14563538383441,italian-egg,it13,
116,Ripete "tuco" da sempre,Ripete X da sempre,tuco,t,u,k,back,high,coronal,velar,0,10,10,115,space,2.03622293472,2018_Aug_29_1424,60.14563538383441,italian-egg,it13,
86,Ha detto "tito" sei volte,Ha detto X sei volte,tito,t,i,t,front,high,coronal,coronal,0,11,11,85,space,1.92078495026,2018_Aug_29_1424,60.14563538383441,italian-egg,it13,
108,Ripete "tico" da sempre,Ripete X da sempre,tico,t,i,k,front,high,coronal,velar,0,12,12,107,space,1.90241789818,2018_Aug_29_1424,60.14563538383441,italian-egg,it13,
157,Scrivete "checo" sul foglio,Scrivete X sul foglio,checo,k,e,k,front,mid-high,velar,velar,0,13,13,156,space,2.08716702461,2018_Aug_29_1424,60.14563538383441,italian-egg,it13,
105,Scrivete "tico" sul foglio,Scrivete X sul foglio,tico,t,i,k,front,high,coronal,velar,0,14,14,104,space,1.96979212761,2018_Aug_29_1424,60.14563538383441,italian-egg,it13,
36,Ripete "puto" da sempre,Ripete X da sempre,puto,p,u,t,back,high,labial,coronal,0,15,15,35,space,1.96935796738,2018_Aug_29_1424,60.14563538383441,italian-egg,it13,
59,Sentivo "tapo" di nuovo,Sentivo X di nuovo,tapo,t,a,p,central,low,coronal,labial,0,16,16,58,space,1.96842098236,2018_Aug_29_1424,60.14563538383441,italian-egg,it13,
132,Ripete "copo" da sempre,Ripete X da sempre,copo,k,o,p,back,mid-low,velar,labial,0,17,17,131,space,1.96948313713,2018_Aug_29_1424,60.14563538383441,italian-egg,it13,
71,Sentivo "topo" di nuovo,Sentivo X di nuovo,topo,t,o,p,back,mid-low,coronal,labial,0,18,18,70,space,1.80213308334,2018_Aug_29_1424,60.14563538383441,italian-egg,it13,
3,Sentivo "papo" di nuovo,Sentivo X di nuovo,papo,p,a,p,central,low,labial,labial,0,19,19,2,space,1.8206911087,2018_Aug_29_1424,60.14563538383441,italian-egg,it13,
148,Ripete "chito" da sempre,Ripete X da sempre,chito,k,i,t,front,high,velar,coronal,0,20,20,147,space,1.75401091576,2018_Aug_29_1424,60.14563538383441,italian-egg,it13,
150,Ha detto "coto" sei volte,Ha detto X sei volte,coto,k,o,t,back,mid-low,velar,coronal,0,21,21,149,space,1.98368906975,2018_Aug_29_1424,60.14563538383441,italian-egg,it13,
25,Scrivete "pito" sul foglio,Scrivete X sul foglio,pito,p,i,t,front,high,labial,coronal,0,22,22,24,space,1.97116017342,2018_Aug_29_1424,60.14563538383441,italian-egg,it13,
66,Ha detto "tipo" sei volte,Ha detto X sei volte,tipo,t,i,p,front,high,coronal,labial,0,23,23,65,space,1.80311203003,2018_Aug_29_1424,60.14563538383441,italian-egg,it13,
98,Ha detto "taco" sei volte,Ha detto X sei volte,taco,t,a,k,central,low,coronal,velar,0,24,24,97,space,1.65381717682,2018_Aug_29_1424,60.14563538383441,italian-egg,it13,
117,Scrivete "capo" sul foglio,Scrivete X sul foglio,capo,k,a,p,central,low,velar,labial,0,25,25,116,space,2.00340294838,2018_Aug_29_1424,60.14563538383441,italian-egg,it13,
7,Sentivo "pepo" di nuovo,Sentivo X di nuovo,pepo,p,e,p,front,mid-high,labial,labial,0,26,26,6,space,1.8869240284,2018_Aug_29_1424,60.14563538383441,italian-egg,it13,
49,Scrivete "poco" sul foglio,Scrivete X sul foglio,poco,p,o,k,back,mid-low,labial,velar,0,27,27,48,space,2.10314798355,2018_Aug_29_1424,60.14563538383441,italian-egg,it13,
149,Scrivete "coto" sul foglio,Scrivete X sul foglio,coto,k,o,t,back,mid-low,velar,coronal,0,28,28,148,space,1.96918296814,2018_Aug_29_1424,60.14563538383441,italian-egg,it13,
135,Sentivo "cupo" di nuovo,Sentivo X di nuovo,cupo,k,u,p,back,high,velar,labial,0,29,29,134,space,1.73697686195,2018_Aug_29_1424,60.14563538383441,italian-egg,it13,
106,Ha detto "tico" sei volte,Ha detto X sei volte,tico,t,i,k,front,high,coronal,velar,0,30,30,105,space,2.03817296028,2018_Aug_29_1424,60.14563538383441,italian-egg,it13,
146,Ha detto "chito" sei volte,Ha detto X sei volte,chito,k,i,t,front,high,velar,coronal,0,31,31,145,space,1.90382599831,2018_Aug_29_1424,60.14563538383441,italian-egg,it13,
9,Scrivete "pipo" sul foglio,Scrivete X sul foglio,pipo,p,i,p,front,high,labial,labial,0,32,32,8,space,2.05428004265,2018_Aug_29_1424,60.14563538383441,italian-egg,it13,
6,Ha detto "pepo" sei volte,Ha detto X sei volte,pepo,p,e,p,front,mid-high,labial,labial,0,33,33,5,space,2.08517217636,2018_Aug_29_1424,60.14563538383441,italian-egg,it13,
134,Ha detto "cupo" sei volte,Ha detto X sei volte,cupo,k,u,p,back,high,velar,labial,0,34,34,133,space,1.7373290062,2018_Aug_29_1424,60.14563538383441,italian-egg,it13,
54,Ha detto "puco" sei volte,Ha detto X sei volte,puco,p,u,k,back,high,labial,velar,0,35,35,53,space,1.80515503883,2018_Aug_29_1424,60.14563538383441,italian-egg,it13,
18,Ha detto "pupo" sei volte,Ha detto X sei volte,pupo,p,u,p,back,high,labial,labial,0,36,36,17,space,1.86747598648,2018_Aug_29_1424,60.14563538383441,italian-egg,it13,
44,Ripete "peco" da sempre,Ripete X da sempre,peco,p,e,k,front,mid-high,labial,velar,0,37,37,43,space,1.85272812843,2018_Aug_29_1424,60.14563538383441,italian-egg,it13,
114,Ha detto "tuco" sei volte,Ha detto X sei volte,tuco,t,u,k,back,high,coronal,velar,0,38,38,113,space,1.81748890877,2018_Aug_29_1424,60.14563538383441,italian-egg,it13,
68,Ripete "tipo" da sempre,Ripete X da sempre,tipo,t,i,p,front,high,coronal,labial,0,39,39,67,space,1.66902804375,2018_Aug_29_1424,60.14563538383441,italian-egg,it13,
92,Ripete "toto" da sempre,Ripete X da sempre,toto,t,o,t,back,mid-low,coronal,coronal,0,40,40,91,space,1.71890592575,2018_Aug_29_1424,60.14563538383441,italian-egg,it13,
138,Ha detto "cato" sei volte,Ha detto X sei volte,cato,k,a,t,central,low,velar,coronal,0,41,41,137,space,1.80273318291,2018_Aug_29_1424,60.14563538383441,italian-egg,it13,
34,Ha detto "puto" sei volte,Ha detto X sei volte,puto,p,u,t,back,high,labial,coronal,0,42,42,33,space,1.83646798134,2018_Aug_29_1424,60.14563538383441,italian-egg,it13,
89,Scrivete "toto" sul foglio,Scrivete X sul foglio,toto,t,o,t,back,mid-low,coronal,coronal,0,43,43,88,space,1.95381903648,2018_Aug_29_1424,60.14563538383441,italian-egg,it13,
131,Sentivo "copo" di nuovo,Sentivo X di nuovo,copo,k,o,p,back,mid-low,velar,labial,0,44,44,130,space,1.95452308655,2018_Aug_29_1424,60.14563538383441,italian-egg,it13,
82,Ha detto "teto" sei volte,Ha detto X sei volte,teto,t,e,t,front,mid-high,coronal,coronal,0,45,45,81,space,1.93746304512,2018_Aug_29_1424,60.14563538383441,italian-egg,it13,
121,Scrivete "chepo" sul foglio,Scrivete X sul foglio,chepo,k,e,p,front,mid-high,velar,labial,0,46,46,120,space,1.98796916008,2018_Aug_29_1424,60.14563538383441,italian-egg,it13,
69,Scrivete "topo" sul foglio,Scrivete X sul foglio,topo,t,o,p,back,mid-low,coronal,labial,0,47,47,68,space,1.76906204224,2018_Aug_29_1424,60.14563538383441,italian-egg,it13,
41,Scrivete "peco" sul foglio,Scrivete X sul foglio,peco,p,e,k,front,mid-high,labial,velar,0,48,48,40,space,1.87006807327,2018_Aug_29_1424,60.14563538383441,italian-egg,it13,
33,Scrivete "puto" sul foglio,Scrivete X sul foglio,puto,p,u,t,back,high,labial,coronal,0,49,49,32,space,1.75407505035,2018_Aug_29_1424,60.14563538383441,italian-egg,it13,
2,Ha detto "papo" sei volte,Ha detto X sei volte,papo,p,a,p,central,low,labial,labial,0,50,50,1,space,1.7199780941,2018_Aug_29_1424,60.14563538383441,italian-egg,it13,
130,Ha detto "copo" sei volte,Ha detto X sei volte,copo,k,o,p,back,mid-low,velar,labial,0,51,51,129,space,1.90270996094,2018_Aug_29_1424,60.14563538383441,italian-egg,it13,
24,Ripete "pato" da sempre,Ripete X da sempre,pato,p,a,t,central,low,labial,coronal,0,52,52,23,space,1.80453419685,2018_Aug_29_1424,60.14563538383441,italian-egg,it13,
95,Sentivo "tuto" di nuovo,Sentivo X di nuovo,tuto,t,u,t,back,high,coronal,coronal,0,53,53,94,space,1.70215702057,2018_Aug_29_1424,60.14563538383441,italian-egg,it13,
144,Ripete "cheto" da sempre,Ripete X da sempre,cheto,k,e,t,front,mid-high,velar,coronal,0,54,54,143,space,4.40375185013,2018_Aug_29_1424,60.14563538383441,italian-egg,it13,
129,Scrivete "copo" sul foglio,Scrivete X sul foglio,copo,k,o,p,back,mid-low,velar,labial,0,55,55,128,space,1.76996922493,2018_Aug_29_1424,60.14563538383441,italian-egg,it13,
75,Sentivo "tupo" di nuovo,Sentivo X di nuovo,tupo,t,u,p,back,high,coronal,labial,0,56,56,74,space,1.72056984901,2018_Aug_29_1424,60.14563538383441,italian-egg,it13,
10,Ha detto "pipo" sei volte,Ha detto X sei volte,pipo,p,i,p,front,high,labial,labial,0,57,57,9,space,1.82183694839,2018_Aug_29_1424,60.14563538383441,italian-egg,it13,
67,Sentivo "tipo" di nuovo,Sentivo X di nuovo,tipo,t,i,p,front,high,coronal,labial,0,58,58,66,space,1.75333094597,2018_Aug_29_1424,60.14563538383441,italian-egg,it13,
32,Ripete "poto" da sempre,Ripete X da sempre,poto,p,o,t,back,mid-low,labial,coronal,0,59,59,31,space,1.86974096298,2018_Aug_29_1424,60.14563538383441,italian-egg,it13,
62,Ha detto "tepo" sei volte,Ha detto X sei volte,tepo,t,e,p,front,mid-high,coronal,labial,0,60,60,61,space,1.98625993729,2018_Aug_29_1424,60.14563538383441,italian-egg,it13,
153,Scrivete "cuto" sul foglio,Scrivete X sul foglio,cuto,k,u,t,back,high,velar,coronal,0,61,61,152,space,1.78680205345,2018_Aug_29_1424,60.14563538383441,italian-egg,it13,
30,Ha detto "poto" sei volte,Ha detto X sei volte,poto,p,o,t,back,mid-low,labial,coronal,0,62,62,29,space,1.75319004059,2018_Aug_29_1424,60.14563538383441,italian-egg,it13,
119,Sentivo "capo" di nuovo,Sentivo X di nuovo,capo,k,a,p,central,low,velar,labial,0,63,63,118,space,1.61962890625,2018_Aug_29_1424,60.14563538383441,italian-egg,it13,
76,Ripete "tupo" da sempre,Ripete X da sempre,tupo,t,u,p,back,high,coronal,labial,0,64,64,75,space,1.83652591705,2018_Aug_29_1424,60.14563538383441,italian-egg,it13,
8,Ripete "pepo" da sempre,Ripete X da sempre,pepo,p,e,p,front,mid-high,labial,labial,0,65,65,7,space,1.92079806328,2018_Aug_29_1424,60.14563538383441,italian-egg,it13,
126,Ha detto "chipo" sei volte,Ha detto X sei volte,chipo,k,i,p,front,high,velar,labial,0,66,66,125,space,1.62048411369,2018_Aug_29_1424,60.14563538383441,italian-egg,it13,
14,Ha detto "popo" sei volte,Ha detto X sei volte,popo,p,o,p,back,mid-low,labial,labial,0,67,67,13,space,1.88735890388,2018_Aug_29_1424,60.14563538383441,italian-egg,it13,
50,Ha detto "poco" sei volte,Ha detto X sei volte,poco,p,o,k,back,mid-low,labial,velar,0,68,68,49,space,1.95461416245,2018_Aug_29_1424,60.14563538383441,italian-egg,it13,
80,Ripete "tato" da sempre,Ripete X da sempre,tato,t,a,t,central,low,coronal,coronal,0,69,69,79,space,1.83719110489,2018_Aug_29_1424,60.14563538383441,italian-egg,it13,
27,Sentivo "pito" di nuovo,Sentivo X di nuovo,pito,p,i,t,front,high,labial,coronal,0,70,70,26,space,1.83875203133,2018_Aug_29_1424,60.14563538383441,italian-egg,it13,
51,Sentivo "poco" di nuovo,Sentivo X di nuovo,poco,p,o,k,back,mid-low,labial,velar,0,71,71,50,space,1.7696428299,2018_Aug_29_1424,60.14563538383441,italian-egg,it13,
46,Ha detto "pico" sei volte,Ha detto X sei volte,pico,p,i,k,front,high,labial,velar,0,72,72,45,space,1.80459880829,2018_Aug_29_1424,60.14563538383441,italian-egg,it13,
142,Ha detto "cheto" sei volte,Ha detto X sei volte,cheto,k,e,t,front,mid-high,velar,coronal,0,73,73,141,space,1.8373260498,2018_Aug_29_1424,60.14563538383441,italian-egg,it13,
127,Sentivo "chipo" di nuovo,Sentivo X di nuovo,chipo,k,i,p,front,high,velar,labial,0,74,74,126,space,1.652987957,2018_Aug_29_1424,60.14563538383441,italian-egg,it13,
147,Sentivo "chito" di nuovo,Sentivo X di nuovo,chito,k,i,t,front,high,velar,coronal,0,75,75,146,space,1.63688087463,2018_Aug_29_1424,60.14563538383441,italian-egg,it13,
20,Ripete "pupo" da sempre,Ripete X da sempre,pupo,p,u,p,back,high,labial,labial,0,76,76,19,space,2.00283098221,2018_Aug_29_1424,60.14563538383441,italian-egg,it13,
11,Sentivo "pipo" di nuovo,Sentivo X di nuovo,pipo,p,i,p,front,high,labial,labial,0,77,77,10,space,1.98749709129,2018_Aug_29_1424,60.14563538383441,italian-egg,it13,
90,Ha detto "toto" sei volte,Ha detto X sei volte,toto,t,o,t,back,mid-low,coronal,coronal,0,78,78,89,space,21.8645830154,2018_Aug_29_1424,60.14563538383441,italian-egg,it13,
103,Sentivo "teco" di nuovo,Sentivo X di nuovo,teco,t,e,k,front,mid-high,coronal,velar,0,79,79,102,space,2.08626580238,2018_Aug_29_1424,60.14563538383441,italian-egg,it13,
15,Sentivo "popo" di nuovo,Sentivo X di nuovo,popo,p,o,p,back,mid-low,labial,labial,0,80,80,14,space,1.81910514832,2018_Aug_29_1424,60.14563538383441,italian-egg,it13,
57,Scrivete "tapo" sul foglio,Scrivete X sul foglio,tapo,t,a,p,central,low,coronal,labial,0,81,81,56,space,2.02045989037,2018_Aug_29_1424,60.14563538383441,italian-egg,it13,
104,Ripete "teco" da sempre,Ripete X da sempre,teco,t,e,k,front,mid-high,coronal,velar,0,82,82,103,space,1.86940193176,2018_Aug_29_1424,60.14563538383441,italian-egg,it13,
99,Sentivo "taco" di nuovo,Sentivo X di nuovo,taco,t,a,k,central,low,coronal,velar,0,83,83,98,space,1.86930513382,2018_Aug_29_1424,60.14563538383441,italian-egg,it13,
111,Sentivo "toco" di nuovo,Sentivo X di nuovo,toco,t,o,k,back,mid-low,coronal,velar,0,84,84,110,space,1.90344691277,2018_Aug_29_1424,60.14563538383441,italian-egg,it13,
112,Ripete "toco" da sempre,Ripete X da sempre,toco,t,o,k,back,mid-low,coronal,velar,0,85,85,111,space,1.81962299347,2018_Aug_29_1424,60.14563538383441,italian-egg,it13,
165,Scrivete "coco" sul foglio,Scrivete X sul foglio,coco,k,o,k,back,mid-low,velar,velar,0,86,86,164,space,2.00397205353,2018_Aug_29_1424,60.14563538383441,italian-egg,it13,
137,Scrivete "cato" sul foglio,Scrivete X sul foglio,cato,k,a,t,central,low,velar,coronal,0,87,87,136,space,1.93756985664,2018_Aug_29_1424,60.14563538383441,italian-egg,it13,
96,Ripete "tuto" da sempre,Ripete X da sempre,tuto,t,u,t,back,high,coronal,coronal,0,88,88,95,space,1.90396499634,2018_Aug_29_1424,60.14563538383441,italian-egg,it13,
115,Sentivo "tuco" di nuovo,Sentivo X di nuovo,tuco,t,u,k,back,high,coronal,velar,0,89,89,114,space,1.75287413597,2018_Aug_29_1424,60.14563538383441,italian-egg,it13,
56,Ripete "puco" da sempre,Ripete X da sempre,puco,p,u,k,back,high,labial,velar,0,90,90,55,space,1.88736200333,2018_Aug_29_1424,60.14563538383441,italian-egg,it13,
77,Scrivete "tato" sul foglio,Scrivete X sul foglio,tato,t,a,t,central,low,coronal,coronal,0,91,91,76,space,1.80224394798,2018_Aug_29_1424,60.14563538383441,italian-egg,it13,
31,Sentivo "poto" di nuovo,Sentivo X di nuovo,poto,p,o,t,back,mid-low,labial,coronal,0,92,92,30,space,2.06772899628,2018_Aug_29_1424,60.14563538383441,italian-egg,it13,
136,Ripete "cupo" da sempre,Ripete X da sempre,cupo,k,u,p,back,high,velar,labial,0,93,93,135,space,1.88588285446,2018_Aug_29_1424,60.14563538383441,italian-egg,it13,
128,Ripete "chipo" da sempre,Ripete X da sempre,chipo,k,i,p,front,high,velar,labial,0,94,94,127,space,1.85332489014,2018_Aug_29_1424,60.14563538383441,italian-egg,it13,
12,Ripete "pipo" da sempre,Ripete X da sempre,pipo,p,i,p,front,high,labial,labial,0,95,95,11,space,1.78645086288,2018_Aug_29_1424,60.14563538383441,italian-egg,it13,
5,Scrivete "pepo" sul foglio,Scrivete X sul foglio,pepo,p,e,p,front,mid-high,labial,labial,0,96,96,4,space,1.93796515465,2018_Aug_29_1424,60.14563538383441,italian-egg,it13,
60,Ripete "tapo" da sempre,Ripete X da sempre,tapo,t,a,p,central,low,coronal,labial,0,97,97,59,space,1.7541911602,2018_Aug_29_1424,60.14563538383441,italian-egg,it13,
47,Sentivo "pico" di nuovo,Sentivo X di nuovo,pico,p,i,k,front,high,labial,velar,0,98,98,46,space,1.76925396919,2018_Aug_29_1424,60.14563538383441,italian-egg,it13,
109,Scrivete "toco" sul foglio,Scrivete X sul foglio,toco,t,o,k,back,mid-low,coronal,velar,0,99,99,108,space,1.78453803062,2018_Aug_29_1424,60.14563538383441,italian-egg,it13,
74,Ha detto "tupo" sei volte,Ha detto X sei volte,tupo,t,u,p,back,high,coronal,labial,0,100,100,73,space,1.58777594566,2018_Aug_29_1424,60.14563538383441,italian-egg,it13,
163,Sentivo "chico" di nuovo,Sentivo X di nuovo,chico,k,i,k,front,high,velar,velar,0,101,101,162,space,1.77077412605,2018_Aug_29_1424,60.14563538383441,italian-egg,it13,
172,Ripete "cuco" da sempre,Ripete X da sempre,cuco,k,u,k,back,high,velar,velar,0,102,102,171,space,1.75347495079,2018_Aug_29_1424,60.14563538383441,italian-egg,it13,
87,Sentivo "tito" di nuovo,Sentivo X di nuovo,tito,t,i,t,front,high,coronal,coronal,0,103,103,86,space,1.7695608139,2018_Aug_29_1424,60.14563538383441,italian-egg,it13,
58,Ha detto "tapo" sei volte,Ha detto X sei volte,tapo,t,a,p,central,low,coronal,labial,0,104,104,57,space,1.90408492088,2018_Aug_29_1424,60.14563538383441,italian-egg,it13,
125,Scrivete "chipo" sul foglio,Scrivete X sul foglio,chipo,k,i,p,front,high,velar,labial,0,105,105,124,space,1.78747606277,2018_Aug_29_1424,60.14563538383441,italian-egg,it13,
93,Scrivete "tuto" sul foglio,Scrivete X sul foglio,tuto,t,u,t,back,high,coronal,coronal,0,106,106,92,space,1.68586587906,2018_Aug_29_1424,60.14563538383441,italian-egg,it13,
45,Scrivete "pico" sul foglio,Scrivete X sul foglio,pico,p,i,k,front,high,labial,velar,0,107,107,44,space,1.80262804031,2018_Aug_29_1424,60.14563538383441,italian-egg,it13,
167,Sentivo "coco" di nuovo,Sentivo X di nuovo,coco,k,o,k,back,mid-low,velar,velar,0,108,108,166,space,1.76986384392,2018_Aug_29_1424,60.14563538383441,italian-egg,it13,
22,Ha detto "pato" sei volte,Ha detto X sei volte,pato,p,a,t,central,low,labial,coronal,0,109,109,21,space,2.1876718998,2018_Aug_29_1424,60.14563538383441,italian-egg,it13,
28,Ripete "pito" da sempre,Ripete X da sempre,pito,p,i,t,front,high,labial,coronal,0,110,110,27,space,1.73688793182,2018_Aug_29_1424,60.14563538383441,italian-egg,it13,
19,Sentivo "pupo" di nuovo,Sentivo X di nuovo,pupo,p,u,p,back,high,labial,labial,0,111,111,18,space,1.66998696327,2018_Aug_29_1424,60.14563538383441,italian-egg,it13,
39,Sentivo "paco" di nuovo,Sentivo X di nuovo,paco,p,a,k,central,low,labial,velar,0,112,112,38,space,1.50324416161,2018_Aug_29_1424,60.14563538383441,italian-egg,it13,
166,Ha detto "coco" sei volte,Ha detto X sei volte,coco,k,o,k,back,mid-low,velar,velar,0,113,113,165,space,1.73635196686,2018_Aug_29_1424,60.14563538383441,italian-egg,it13,
162,Ha detto "chico" sei volte,Ha detto X sei volte,chico,k,i,k,front,high,velar,velar,0,114,114,161,space,1.63594985008,2018_Aug_29_1424,60.14563538383441,italian-egg,it13,
37,Scrivete "paco" sul foglio,Scrivete X sul foglio,paco,p,a,k,central,low,labial,velar,0,115,115,36,space,1.65410399437,2018_Aug_29_1424,60.14563538383441,italian-egg,it13,
145,Scrivete "chito" sul foglio,Scrivete X sul foglio,chito,k,i,t,front,high,velar,coronal,0,116,116,144,space,1.68698787689,2018_Aug_29_1424,60.14563538383441,italian-egg,it13,
164,Ripete "chico" da sempre,Ripete X da sempre,chico,k,i,k,front,high,velar,velar,0,117,117,163,space,1.48601508141,2018_Aug_29_1424,60.14563538383441,italian-egg,it13,
43,Sentivo "peco" di nuovo,Sentivo X di nuovo,peco,p,e,k,front,mid-high,labial,velar,0,118,118,42,space,1.5853600502,2018_Aug_29_1424,60.14563538383441,italian-egg,it13,
65,Scrivete "tipo" sul foglio,Scrivete X sul foglio,tipo,t,i,p,front,high,coronal,labial,0,119,119,64,space,1.73566007614,2018_Aug_29_1424,60.14563538383441,italian-egg,it13,
81,Scrivete "teto" sul foglio,Scrivete X sul foglio,teto,t,e,t,front,mid-high,coronal,coronal,0,120,120,80,space,1.56853199005,2018_Aug_29_1424,60.14563538383441,italian-egg,it13,
110,Ha detto "toco" sei volte,Ha detto X sei volte,toco,t,o,k,back,mid-low,coronal,velar,0,121,121,109,space,1.75371313095,2018_Aug_29_1424,60.14563538383441,italian-egg,it13,
133,Scrivete "cupo" sul foglio,Scrivete X sul foglio,cupo,k,u,p,back,high,velar,labial,0,122,122,132,space,1.75341796875,2018_Aug_29_1424,60.14563538383441,italian-egg,it13,
97,Scrivete "taco" sul foglio,Scrivete X sul foglio,taco,t,a,k,central,low,coronal,velar,0,123,123,96,space,1.82017397881,2018_Aug_29_1424,60.14563538383441,italian-egg,it13,
124,Ripete "chepo" da sempre,Ripete X da sempre,chepo,k,e,p,front,mid-high,velar,labial,0,124,124,123,space,5.98726296425,2018_Aug_29_1424,60.14563538383441,italian-egg,it13,
171,Sentivo "cuco" di nuovo,Sentivo X di nuovo,cuco,k,u,k,back,high,velar,velar,0,125,125,170,space,1.67059898376,2018_Aug_29_1424,60.14563538383441,italian-egg,it13,
91,Sentivo "toto" di nuovo,Sentivo X di nuovo,toto,t,o,t,back,mid-low,coronal,coronal,0,126,126,90,space,1.50335907936,2018_Aug_29_1424,60.14563538383441,italian-egg,it13,
79,Sentivo "tato" di nuovo,Sentivo X di nuovo,tato,t,a,t,central,low,coronal,coronal,0,127,127,78,space,1.43580794334,2018_Aug_29_1424,60.14563538383441,italian-egg,it13,
160,Ripete "checo" da sempre,Ripete X da sempre,checo,k,e,k,front,mid-high,velar,velar,0,128,128,159,space,1.76959609985,2018_Aug_29_1424,60.14563538383441,italian-egg,it13,
21,Scrivete "pato" sul foglio,Scrivete X sul foglio,pato,p,a,t,central,low,labial,coronal,0,129,129,20,space,1.75433206558,2018_Aug_29_1424,60.14563538383441,italian-egg,it13,
122,Ha detto "chepo" sei volte,Ha detto X sei volte,chepo,k,e,p,front,mid-high,velar,labial,0,130,130,121,space,1.93740797043,2018_Aug_29_1424,60.14563538383441,italian-egg,it13,
151,Sentivo "coto" di nuovo,Sentivo X di nuovo,coto,k,o,t,back,mid-low,velar,coronal,0,131,131,150,space,1.70222187042,2018_Aug_29_1424,60.14563538383441,italian-egg,it13,
161,Scrivete "chico" sul foglio,Scrivete X sul foglio,chico,k,i,k,front,high,velar,velar,0,132,132,160,space,1.8870279789,2018_Aug_29_1424,60.14563538383441,italian-egg,it13,
123,Sentivo "chepo" di nuovo,Sentivo X di nuovo,chepo,k,e,p,front,mid-high,velar,labial,0,133,133,122,space,1.58698797226,2018_Aug_29_1424,60.14563538383441,italian-egg,it13,
29,Scrivete "poto" sul foglio,Scrivete X sul foglio,poto,p,o,t,back,mid-low,labial,coronal,0,134,134,28,space,1.78643798828,2018_Aug_29_1424,60.14563538383441,italian-egg,it13,
70,Ha detto "topo" sei volte,Ha detto X sei volte,topo,t,o,p,back,mid-low,coronal,labial,0,135,135,69,space,1.65312719345,2018_Aug_29_1424,60.14563538383441,italian-egg,it13,
40,Ripete "paco" da sempre,Ripete X da sempre,paco,p,a,k,central,low,labial,velar,0,136,136,39,space,4.2892768383,2018_Aug_29_1424,60.14563538383441,italian-egg,it13,
84,Ripete "teto" da sempre,Ripete X da sempre,teto,t,e,t,front,mid-high,coronal,coronal,0,137,137,83,space,1.61995196342,2018_Aug_29_1424,60.14563538383441,italian-egg,it13,
78,Ha detto "tato" sei volte,Ha detto X sei volte,tato,t,a,t,central,low,coronal,coronal,0,138,138,77,space,1.56673002243,2018_Aug_29_1424,60.14563538383441,italian-egg,it13,
120,Ripete "capo" da sempre,Ripete X da sempre,capo,k,a,p,central,low,velar,labial,0,139,139,119,space,1.5868999958,2018_Aug_29_1424,60.14563538383441,italian-egg,it13,
42,Ha detto "peco" sei volte,Ha detto X sei volte,peco,p,e,k,front,mid-high,labial,velar,0,140,140,41,space,1.62052488327,2018_Aug_29_1424,60.14563538383441,italian-egg,it13,
158,Ha detto "checo" sei volte,Ha detto X sei volte,checo,k,e,k,front,mid-high,velar,velar,0,141,141,157,space,1.66960382462,2018_Aug_29_1424,60.14563538383441,italian-egg,it13,
159,Sentivo "checo" di nuovo,Sentivo X di nuovo,checo,k,e,k,front,mid-high,velar,velar,0,142,142,158,space,1.78739309311,2018_Aug_29_1424,60.14563538383441,italian-egg,it13,
170,Ha detto "cuco" sei volte,Ha detto X sei volte,cuco,k,u,k,back,high,velar,velar,0,143,143,169,space,1.88592600822,2018_Aug_29_1424,60.14563538383441,italian-egg,it13,
52,Ripete "poco" da sempre,Ripete X da sempre,poco,p,o,k,back,mid-low,labial,velar,0,144,144,51,space,1.66909003258,2018_Aug_29_1424,60.14563538383441,italian-egg,it13,
169,Scrivete "cuco" sul foglio,Scrivete X sul foglio,cuco,k,u,k,back,high,velar,velar,0,145,145,168,space,1.80358099937,2018_Aug_29_1424,60.14563538383441,italian-egg,it13,
94,Ha detto "tuto" sei volte,Ha detto X sei volte,tuto,t,u,t,back,high,coronal,coronal,0,146,146,93,space,1.62064695358,2018_Aug_29_1424,60.14563538383441,italian-egg,it13,
64,Ripete "tepo" da sempre,Ripete X da sempre,tepo,t,e,p,front,mid-high,coronal,labial,0,147,147,63,space,1.66933202744,2018_Aug_29_1424,60.14563538383441,italian-egg,it13,
85,Scrivete "tito" sul foglio,Scrivete X sul foglio,tito,t,i,t,front,high,coronal,coronal,0,148,148,84,space,1.68653702736,2018_Aug_29_1424,60.14563538383441,italian-egg,it13,
53,Scrivete "puco" sul foglio,Scrivete X sul foglio,puco,p,u,k,back,high,labial,velar,0,149,149,52,space,1.61858797073,2018_Aug_29_1424,60.14563538383441,italian-egg,it13,
156,Ripete "cuto" da sempre,Ripete X da sempre,cuto,k,u,t,back,high,velar,coronal,0,150,150,155,space,1.63707900047,2018_Aug_29_1424,60.14563538383441,italian-egg,it13,
4,Ripete "papo" da sempre,Ripete X da sempre,papo,p,a,p,central,low,labial,labial,0,151,151,3,space,1.48723101616,2018_Aug_29_1424,60.14563538383441,italian-egg,it13,
16,Ripete "popo" da sempre,Ripete X da sempre,popo,p,o,p,back,mid-low,labial,labial,0,152,152,15,space,1.75317811966,2018_Aug_29_1424,60.14563538383441,italian-egg,it13,
63,Sentivo "tepo" di nuovo,Sentivo X di nuovo,tepo,t,e,p,front,mid-high,coronal,labial,0,153,153,62,space,1.58640289307,2018_Aug_29_1424,60.14563538383441,italian-egg,it13,
143,Sentivo "cheto" di nuovo,Sentivo X di nuovo,cheto,k,e,t,front,mid-high,velar,coronal,0,154,154,142,space,1.66847395897,2018_Aug_29_1424,60.14563538383441,italian-egg,it13,
139,Sentivo "cato" di nuovo,Sentivo X di nuovo,cato,k,a,t,central,low,velar,coronal,0,155,155,138,space,1.56797385216,2018_Aug_29_1424,60.14563538383441,italian-egg,it13,
155,Sentivo "cuto" di nuovo,Sentivo X di nuovo,cuto,k,u,t,back,high,velar,coronal,0,156,156,154,space,1.53660106659,2018_Aug_29_1424,60.14563538383441,italian-egg,it13,
26,Ha detto "pito" sei volte,Ha detto X sei volte,pito,p,i,t,front,high,labial,coronal,0,157,157,25,space,1.78449177742,2018_Aug_29_1424,60.14563538383441,italian-egg,it13,
72,Ripete "topo" da sempre,Ripete X da sempre,topo,t,o,p,back,mid-low,coronal,labial,0,158,158,71,space,1.71889615059,2018_Aug_29_1424,60.14563538383441,italian-egg,it13,
88,Ripete "tito" da sempre,Ripete X da sempre,tito,t,i,t,front,high,coronal,coronal,0,159,159,87,space,1.48651909828,2018_Aug_29_1424,60.14563538383441,italian-egg,it13,
100,Ripete "taco" da sempre,Ripete X da sempre,taco,t,a,k,central,low,coronal,velar,0,160,160,99,space,1.48681306839,2018_Aug_29_1424,60.14563538383441,italian-egg,it13,
101,Scrivete "teco" sul foglio,Scrivete X sul foglio,teco,t,e,k,front,mid-high,coronal,velar,0,161,161,100,space,1.50282382965,2018_Aug_29_1424,60.14563538383441,italian-egg,it13,
17,Scrivete "pupo" sul foglio,Scrivete X sul foglio,pupo,p,u,p,back,high,labial,labial,0,162,162,16,space,1.60236692429,2018_Aug_29_1424,60.14563538383441,italian-egg,it13,
140,Ripete "cato" da sempre,Ripete X da sempre,cato,k,a,t,central,low,velar,coronal,0,163,163,139,space,6.60595607758,2018_Aug_29_1424,60.14563538383441,italian-egg,it13,
48,Ripete "pico" da sempre,Ripete X da sempre,pico,p,i,k,front,high,labial,velar,0,164,164,47,space,1.95329809189,2018_Aug_29_1424,60.14563538383441,italian-egg,it13,
152,Ripete "coto" da sempre,Ripete X da sempre,coto,k,o,t,back,mid-low,velar,coronal,0,165,165,151,space,1.63724708557,2018_Aug_29_1424,60.14563538383441,italian-egg,it13,
23,Sentivo "pato" di nuovo,Sentivo X di nuovo,pato,p,a,t,central,low,labial,coronal,0,166,166,22,space,1.5518951416,2018_Aug_29_1424,60.14563538383441,italian-egg,it13,
83,Sentivo "teto" di nuovo,Sentivo X di nuovo,teto,t,e,t,front,mid-high,coronal,coronal,0,167,167,82,space,1.28540110588,2018_Aug_29_1424,60.14563538383441,italian-egg,it13,
55,Sentivo "puco" di nuovo,Sentivo X di nuovo,puco,p,u,k,back,high,labial,velar,0,168,168,54,space,1.51973605156,2018_Aug_29_1424,60.14563538383441,italian-egg,it13,
38,Ha detto "paco" sei volte,Ha detto X sei volte,paco,p,a,k,central,low,labial,velar,0,169,169,37,space,1.58609199524,2018_Aug_29_1424,60.14563538383441,italian-egg,it13,
73,Scrivete "tupo" sul foglio,Scrivete X sul foglio,tupo,t,u,p,back,high,coronal,labial,0,170,170,72,space,1.62004303932,2018_Aug_29_1424,60.14563538383441,italian-egg,it13,
113,Scrivete "tuco" sul foglio,Scrivete X sul foglio,tuco,t,u,k,back,high,coronal,velar,0,171,171,112,space,1.45213913918,2018_Aug_29_1424,60.14563538383441,italian-egg,it13,
