stimulus_id,stimulus,sentence,word,consonant_1,vowel,consonant_2,backness,height,place_1,place_2,trials.thisRepN,trials.thisTrialN,trials.thisN,trials.thisIndex,key_resp_2.keys,key_resp_2.rt,date,frameRate,expName,participant,
20,Ripete "pupo" da sempre,Ripete X da sempre,pupo,p,u,p,back,high,labial,labial,0,0,0,19,space,10.1068129539,2018_Sep_07_1744,60.35838250107929,italian-egg,it17,
105,Scrivete "tico" sul foglio,Scrivete X sul foglio,tico,t,i,k,front,high,coronal,velar,0,1,1,104,space,1.76865911484,2018_Sep_07_1744,60.35838250107929,italian-egg,it17,
12,Ripete "pipo" da sempre,Ripete X da sempre,pipo,p,i,p,front,high,labial,labial,0,2,2,11,space,1.51941204071,2018_Sep_07_1744,60.35838250107929,italian-egg,it17,
26,Ha detto "pito" sei volte,Ha detto X sei volte,pito,p,i,t,front,high,labial,coronal,0,3,3,25,space,1.88786411285,2018_Sep_07_1744,60.35838250107929,italian-egg,it17,
158,Ha detto "checo" sei volte,Ha detto X sei volte,checo,k,e,k,front,mid-high,velar,velar,0,4,4,157,space,1.57172417641,2018_Sep_07_1744,60.35838250107929,italian-egg,it17,
153,Scrivete "cuto" sul foglio,Scrivete X sul foglio,cuto,k,u,t,back,high,velar,coronal,0,5,5,152,space,1.587692976,2018_Sep_07_1744,60.35838250107929,italian-egg,it17,
148,Ripete "chito" da sempre,Ripete X da sempre,chito,k,i,t,front,high,velar,coronal,0,6,6,147,space,1.41885900497,2018_Sep_07_1744,60.35838250107929,italian-egg,it17,
125,Scrivete "chipo" sul foglio,Scrivete X sul foglio,chipo,k,i,p,front,high,velar,labial,0,7,7,124,space,5.00389909744,2018_Sep_07_1744,60.35838250107929,italian-egg,it17,
106,Ha detto "tico" sei volte,Ha detto X sei volte,tico,t,i,k,front,high,coronal,velar,0,8,8,105,space,1.28672909737,2018_Sep_07_1744,60.35838250107929,italian-egg,it17,
101,Scrivete "teco" sul foglio,Scrivete X sul foglio,teco,t,e,k,front,mid-high,coronal,velar,0,9,9,100,space,1.31870913506,2018_Sep_07_1744,60.35838250107929,italian-egg,it17,
88,Ripete "tito" da sempre,Ripete X da sempre,tito,t,i,t,front,high,coronal,coronal,0,10,10,87,space,1.57121419907,2018_Sep_07_1744,60.35838250107929,italian-egg,it17,
98,Ha detto "taco" sei volte,Ha detto X sei volte,taco,t,a,k,central,low,coronal,velar,0,11,11,97,space,1.519728899,2018_Sep_07_1744,60.35838250107929,italian-egg,it17,
63,Sentivo "tepo" di nuovo,Sentivo X di nuovo,tepo,t,e,p,front,mid-high,coronal,labial,0,12,12,62,space,1.30269503593,2018_Sep_07_1744,60.35838250107929,italian-egg,it17,
102,Ha detto "teco" sei volte,Ha detto X sei volte,teco,t,e,k,front,mid-high,coronal,velar,0,13,13,101,space,1.4017598629,2018_Sep_07_1744,60.35838250107929,italian-egg,it17,
77,Scrivete "tato" sul foglio,Scrivete X sul foglio,tato,t,a,t,central,low,coronal,coronal,0,14,14,76,space,1.33767795563,2018_Sep_07_1744,60.35838250107929,italian-egg,it17,
118,Ha detto "capo" sei volte,Ha detto X sei volte,capo,k,a,p,central,low,velar,labial,0,15,15,117,space,1.43610787392,2018_Sep_07_1744,60.35838250107929,italian-egg,it17,
76,Ripete "tupo" da sempre,Ripete X da sempre,tupo,t,u,p,back,high,coronal,labial,0,16,16,75,space,1.4019639492,2018_Sep_07_1744,60.35838250107929,italian-egg,it17,
137,Scrivete "cato" sul foglio,Scrivete X sul foglio,cato,k,a,t,central,low,velar,coronal,0,17,17,136,space,1.33514380455,2018_Sep_07_1744,60.35838250107929,italian-egg,it17,
41,Scrivete "peco" sul foglio,Scrivete X sul foglio,peco,p,e,k,front,mid-high,labial,velar,0,18,18,40,space,1.40277099609,2018_Sep_07_1744,60.35838250107929,italian-egg,it17,
51,Sentivo "poco" di nuovo,Sentivo X di nuovo,poco,p,o,k,back,mid-low,labial,velar,0,19,19,50,space,1.26954317093,2018_Sep_07_1744,60.35838250107929,italian-egg,it17,
147,Sentivo "chito" di nuovo,Sentivo X di nuovo,chito,k,i,t,front,high,velar,coronal,0,20,20,146,space,1.18569993973,2018_Sep_07_1744,60.35838250107929,italian-egg,it17,
73,Scrivete "tupo" sul foglio,Scrivete X sul foglio,tupo,t,u,p,back,high,coronal,labial,0,21,21,72,space,1.23646688461,2018_Sep_07_1744,60.35838250107929,italian-egg,it17,
166,Ha detto "coco" sei volte,Ha detto X sei volte,coco,k,o,k,back,mid-low,velar,velar,0,22,22,165,space,1.21849894524,2018_Sep_07_1744,60.35838250107929,italian-egg,it17,
89,Scrivete "toto" sul foglio,Scrivete X sul foglio,toto,t,o,t,back,mid-low,coronal,coronal,0,23,23,88,space,1.13536000252,2018_Sep_07_1744,60.35838250107929,italian-egg,it17,
151,Sentivo "coto" di nuovo,Sentivo X di nuovo,coto,k,o,t,back,mid-low,velar,coronal,0,24,24,150,space,2.90350699425,2018_Sep_07_1744,60.35838250107929,italian-egg,it17,
66,Ha detto "tipo" sei volte,Ha detto X sei volte,tipo,t,i,p,front,high,coronal,labial,0,25,25,65,space,1.15341114998,2018_Sep_07_1744,60.35838250107929,italian-egg,it17,
140,Ripete "cato" da sempre,Ripete X da sempre,cato,k,a,t,central,low,velar,coronal,0,26,26,139,space,1.15312385559,2018_Sep_07_1744,60.35838250107929,italian-egg,it17,
24,Ripete "pato" da sempre,Ripete X da sempre,pato,p,a,t,central,low,labial,coronal,0,27,27,23,space,1.08659410477,2018_Sep_07_1744,60.35838250107929,italian-egg,it17,
172,Ripete "cuco" da sempre,Ripete X da sempre,cuco,k,u,k,back,high,velar,velar,0,28,28,171,space,1.36935806274,2018_Sep_07_1744,60.35838250107929,italian-egg,it17,
3,Sentivo "papo" di nuovo,Sentivo X di nuovo,papo,p,a,p,central,low,labial,labial,0,29,29,2,space,1.13575005531,2018_Sep_07_1744,60.35838250107929,italian-egg,it17,
1,Scrivete "papo" sul foglio,Scrivete X sul foglio,papo,p,a,p,central,low,labial,labial,0,30,30,0,space,1.16897988319,2018_Sep_07_1744,60.35838250107929,italian-egg,it17,
128,Ripete "chipo" da sempre,Ripete X da sempre,chipo,k,i,p,front,high,velar,labial,0,31,31,127,space,1.21979498863,2018_Sep_07_1744,60.35838250107929,italian-egg,it17,
162,Ha detto "chico" sei volte,Ha detto X sei volte,chico,k,i,k,front,high,velar,velar,0,32,32,161,space,1.15434885025,2018_Sep_07_1744,60.35838250107929,italian-egg,it17,
58,Ha detto "tapo" sei volte,Ha detto X sei volte,tapo,t,a,p,central,low,coronal,labial,0,33,33,57,space,1.16997313499,2018_Sep_07_1744,60.35838250107929,italian-egg,it17,
32,Ripete "poto" da sempre,Ripete X da sempre,poto,p,o,t,back,mid-low,labial,coronal,0,34,34,31,space,1.13694500923,2018_Sep_07_1744,60.35838250107929,italian-egg,it17,
33,Scrivete "puto" sul foglio,Scrivete X sul foglio,puto,p,u,t,back,high,labial,coronal,0,35,35,32,space,1.35204100609,2018_Sep_07_1744,60.35838250107929,italian-egg,it17,
10,Ha detto "pipo" sei volte,Ha detto X sei volte,pipo,p,i,p,front,high,labial,labial,0,36,36,9,space,1.28560996056,2018_Sep_07_1744,60.35838250107929,italian-egg,it17,
55,Sentivo "puco" di nuovo,Sentivo X di nuovo,puco,p,u,k,back,high,labial,velar,0,37,37,54,space,1.08501911163,2018_Sep_07_1744,60.35838250107929,italian-egg,it17,
64,Ripete "tepo" da sempre,Ripete X da sempre,tepo,t,e,p,front,mid-high,coronal,labial,0,38,38,63,space,1.15306997299,2018_Sep_07_1744,60.35838250107929,italian-egg,it17,
53,Scrivete "puco" sul foglio,Scrivete X sul foglio,puco,p,u,k,back,high,labial,velar,0,39,39,52,space,0.969792842865,2018_Sep_07_1744,60.35838250107929,italian-egg,it17,
5,Scrivete "pepo" sul foglio,Scrivete X sul foglio,pepo,p,e,p,front,mid-high,labial,labial,0,40,40,4,space,1.62010288239,2018_Sep_07_1744,60.35838250107929,italian-egg,it17,
37,Scrivete "paco" sul foglio,Scrivete X sul foglio,paco,p,a,k,central,low,labial,velar,0,41,41,36,space,1.30211400986,2018_Sep_07_1744,60.35838250107929,italian-egg,it17,
59,Sentivo "tapo" di nuovo,Sentivo X di nuovo,tapo,t,a,p,central,low,coronal,labial,0,42,42,58,space,1.37073993683,2018_Sep_07_1744,60.35838250107929,italian-egg,it17,
86,Ha detto "tito" sei volte,Ha detto X sei volte,tito,t,i,t,front,high,coronal,coronal,0,43,43,85,space,1.22092103958,2018_Sep_07_1744,60.35838250107929,italian-egg,it17,
103,Sentivo "teco" di nuovo,Sentivo X di nuovo,teco,t,e,k,front,mid-high,coronal,velar,0,44,44,102,space,1.06895804405,2018_Sep_07_1744,60.35838250107929,italian-egg,it17,
57,Scrivete "tapo" sul foglio,Scrivete X sul foglio,tapo,t,a,p,central,low,coronal,labial,0,45,45,56,space,1.21980690956,2018_Sep_07_1744,60.35838250107929,italian-egg,it17,
163,Sentivo "chico" di nuovo,Sentivo X di nuovo,chico,k,i,k,front,high,velar,velar,0,46,46,162,space,1.05226707458,2018_Sep_07_1744,60.35838250107929,italian-egg,it17,
31,Sentivo "poto" di nuovo,Sentivo X di nuovo,poto,p,o,t,back,mid-low,labial,coronal,0,47,47,30,space,1.01918315887,2018_Sep_07_1744,60.35838250107929,italian-egg,it17,
92,Ripete "toto" da sempre,Ripete X da sempre,toto,t,o,t,back,mid-low,coronal,coronal,0,48,48,91,space,1.20358204842,2018_Sep_07_1744,60.35838250107929,italian-egg,it17,
13,Scrivete "popo" sul foglio,Scrivete X sul foglio,popo,p,o,p,back,mid-low,labial,labial,0,49,49,12,space,1.25339818001,2018_Sep_07_1744,60.35838250107929,italian-egg,it17,
132,Ripete "copo" da sempre,Ripete X da sempre,copo,k,o,p,back,mid-low,velar,labial,0,50,50,131,space,1.28442311287,2018_Sep_07_1744,60.35838250107929,italian-egg,it17,
21,Scrivete "pato" sul foglio,Scrivete X sul foglio,pato,p,a,t,central,low,labial,coronal,0,51,51,20,space,1.3854739666,2018_Sep_07_1744,60.35838250107929,italian-egg,it17,
52,Ripete "poco" da sempre,Ripete X da sempre,poco,p,o,k,back,mid-low,labial,velar,0,52,52,51,space,1.25180196762,2018_Sep_07_1744,60.35838250107929,italian-egg,it17,
100,Ripete "taco" da sempre,Ripete X da sempre,taco,t,a,k,central,low,coronal,velar,0,53,53,99,space,1.2198240757,2018_Sep_07_1744,60.35838250107929,italian-egg,it17,
45,Scrivete "pico" sul foglio,Scrivete X sul foglio,pico,p,i,k,front,high,labial,velar,0,54,54,44,space,1.21695899963,2018_Sep_07_1744,60.35838250107929,italian-egg,it17,
167,Sentivo "coco" di nuovo,Sentivo X di nuovo,coco,k,o,k,back,mid-low,velar,velar,0,55,55,166,space,1.05330991745,2018_Sep_07_1744,60.35838250107929,italian-egg,it17,
133,Scrivete "cupo" sul foglio,Scrivete X sul foglio,cupo,k,u,p,back,high,velar,labial,0,56,56,132,space,1.28698515892,2018_Sep_07_1744,60.35838250107929,italian-egg,it17,
75,Sentivo "tupo" di nuovo,Sentivo X di nuovo,tupo,t,u,p,back,high,coronal,labial,0,57,57,74,space,1.10053515434,2018_Sep_07_1744,60.35838250107929,italian-egg,it17,
168,Ripete "coco" da sempre,Ripete X da sempre,coco,k,o,k,back,mid-low,velar,velar,0,58,58,167,space,1.17023301125,2018_Sep_07_1744,60.35838250107929,italian-egg,it17,
84,Ripete "teto" da sempre,Ripete X da sempre,teto,t,e,t,front,mid-high,coronal,coronal,0,59,59,83,space,1.03724098206,2018_Sep_07_1744,60.35838250107929,italian-egg,it17,
121,Scrivete "chepo" sul foglio,Scrivete X sul foglio,chepo,k,e,p,front,mid-high,velar,labial,0,60,60,120,space,0.968406915665,2018_Sep_07_1744,60.35838250107929,italian-egg,it17,
42,Ha detto "peco" sei volte,Ha detto X sei volte,peco,p,e,k,front,mid-high,labial,velar,0,61,61,41,space,1.35303616524,2018_Sep_07_1744,60.35838250107929,italian-egg,it17,
81,Scrivete "teto" sul foglio,Scrivete X sul foglio,teto,t,e,t,front,mid-high,coronal,coronal,0,62,62,80,space,1.03750395775,2018_Sep_07_1744,60.35838250107929,italian-egg,it17,
44,Ripete "peco" da sempre,Ripete X da sempre,peco,p,e,k,front,mid-high,labial,velar,0,63,63,43,space,1.18671393394,2018_Sep_07_1744,60.35838250107929,italian-egg,it17,
145,Scrivete "chito" sul foglio,Scrivete X sul foglio,chito,k,i,t,front,high,velar,coronal,0,64,64,144,space,1.08608698845,2018_Sep_07_1744,60.35838250107929,italian-egg,it17,
143,Sentivo "cheto" di nuovo,Sentivo X di nuovo,cheto,k,e,t,front,mid-high,velar,coronal,0,65,65,142,space,0.899954080582,2018_Sep_07_1744,60.35838250107929,italian-egg,it17,
138,Ha detto "cato" sei volte,Ha detto X sei volte,cato,k,a,t,central,low,velar,coronal,0,66,66,137,space,1.15321302414,2018_Sep_07_1744,60.35838250107929,italian-egg,it17,
131,Sentivo "copo" di nuovo,Sentivo X di nuovo,copo,k,o,p,back,mid-low,velar,labial,0,67,67,130,space,1.01944518089,2018_Sep_07_1744,60.35838250107929,italian-egg,it17,
40,Ripete "paco" da sempre,Ripete X da sempre,paco,p,a,k,central,low,labial,velar,0,68,68,39,space,1.06944417953,2018_Sep_07_1744,60.35838250107929,italian-egg,it17,
115,Sentivo "tuco" di nuovo,Sentivo X di nuovo,tuco,t,u,k,back,high,coronal,velar,0,69,69,114,space,0.969377994537,2018_Sep_07_1744,60.35838250107929,italian-egg,it17,
80,Ripete "tato" da sempre,Ripete X da sempre,tato,t,a,t,central,low,coronal,coronal,0,70,70,79,space,1.23658180237,2018_Sep_07_1744,60.35838250107929,italian-egg,it17,
109,Scrivete "toco" sul foglio,Scrivete X sul foglio,toco,t,o,k,back,mid-low,coronal,velar,0,71,71,108,space,1.06983804703,2018_Sep_07_1744,60.35838250107929,italian-egg,it17,
157,Scrivete "checo" sul foglio,Scrivete X sul foglio,checo,k,e,k,front,mid-high,velar,velar,0,72,72,156,space,1.08429598808,2018_Sep_07_1744,60.35838250107929,italian-egg,it17,
97,Scrivete "taco" sul foglio,Scrivete X sul foglio,taco,t,a,k,central,low,coronal,velar,0,73,73,96,space,1.03574800491,2018_Sep_07_1744,60.35838250107929,italian-egg,it17,
8,Ripete "pepo" da sempre,Ripete X da sempre,pepo,p,e,p,front,mid-high,labial,labial,0,74,74,7,space,1.05261087418,2018_Sep_07_1744,60.35838250107929,italian-egg,it17,
25,Scrivete "pito" sul foglio,Scrivete X sul foglio,pito,p,i,t,front,high,labial,coronal,0,75,75,24,space,1.57117795944,2018_Sep_07_1744,60.35838250107929,italian-egg,it17,
14,Ha detto "popo" sei volte,Ha detto X sei volte,popo,p,o,p,back,mid-low,labial,labial,0,76,76,13,space,1.21835398674,2018_Sep_07_1744,60.35838250107929,italian-egg,it17,
39,Sentivo "paco" di nuovo,Sentivo X di nuovo,paco,p,a,k,central,low,labial,velar,0,77,77,38,space,0.886389017105,2018_Sep_07_1744,60.35838250107929,italian-egg,it17,
110,Ha detto "toco" sei volte,Ha detto X sei volte,toco,t,o,k,back,mid-low,coronal,velar,0,78,78,109,space,1.15599393845,2018_Sep_07_1744,60.35838250107929,italian-egg,it17,
161,Scrivete "chico" sul foglio,Scrivete X sul foglio,chico,k,i,k,front,high,velar,velar,0,79,79,160,space,1.18594002724,2018_Sep_07_1744,60.35838250107929,italian-egg,it17,
117,Scrivete "capo" sul foglio,Scrivete X sul foglio,capo,k,a,p,central,low,velar,labial,0,80,80,116,space,1.03567004204,2018_Sep_07_1744,60.35838250107929,italian-egg,it17,
119,Sentivo "capo" di nuovo,Sentivo X di nuovo,capo,k,a,p,central,low,velar,labial,0,81,81,118,space,0.903839826584,2018_Sep_07_1744,60.35838250107929,italian-egg,it17,
170,Ha detto "cuco" sei volte,Ha detto X sei volte,cuco,k,u,k,back,high,velar,velar,0,82,82,169,space,0.985553979874,2018_Sep_07_1744,60.35838250107929,italian-egg,it17,
134,Ha detto "cupo" sei volte,Ha detto X sei volte,cupo,k,u,p,back,high,velar,labial,0,83,83,133,space,1.00260901451,2018_Sep_07_1744,60.35838250107929,italian-egg,it17,
123,Sentivo "chepo" di nuovo,Sentivo X di nuovo,chepo,k,e,p,front,mid-high,velar,labial,0,84,84,122,space,1.10217499733,2018_Sep_07_1744,60.35838250107929,italian-egg,it17,
67,Sentivo "tipo" di nuovo,Sentivo X di nuovo,tipo,t,i,p,front,high,coronal,labial,0,85,85,66,space,5.50148296356,2018_Sep_07_1744,60.35838250107929,italian-egg,it17,
116,Ripete "tuco" da sempre,Ripete X da sempre,tuco,t,u,k,back,high,coronal,velar,0,86,86,115,space,1.27049684525,2018_Sep_07_1744,60.35838250107929,italian-egg,it17,
150,Ha detto "coto" sei volte,Ha detto X sei volte,coto,k,o,t,back,mid-low,velar,coronal,0,87,87,149,space,1.36873602867,2018_Sep_07_1744,60.35838250107929,italian-egg,it17,
96,Ripete "tuto" da sempre,Ripete X da sempre,tuto,t,u,t,back,high,coronal,coronal,0,88,88,95,space,1.03556799889,2018_Sep_07_1744,60.35838250107929,italian-egg,it17,
154,Ha detto "cuto" sei volte,Ha detto X sei volte,cuto,k,u,t,back,high,velar,coronal,0,89,89,153,space,1.10285019875,2018_Sep_07_1744,60.35838250107929,italian-egg,it17,
159,Sentivo "checo" di nuovo,Sentivo X di nuovo,checo,k,e,k,front,mid-high,velar,velar,0,90,90,158,space,1.00264215469,2018_Sep_07_1744,60.35838250107929,italian-egg,it17,
90,Ha detto "toto" sei volte,Ha detto X sei volte,toto,t,o,t,back,mid-low,coronal,coronal,0,91,91,89,space,1.08474206924,2018_Sep_07_1744,60.35838250107929,italian-egg,it17,
23,Sentivo "pato" di nuovo,Sentivo X di nuovo,pato,p,a,t,central,low,labial,coronal,0,92,92,22,space,1.06105399132,2018_Sep_07_1744,60.35838250107929,italian-egg,it17,
30,Ha detto "poto" sei volte,Ha detto X sei volte,poto,p,o,t,back,mid-low,labial,coronal,0,93,93,29,space,0.935898065567,2018_Sep_07_1744,60.35838250107929,italian-egg,it17,
61,Scrivete "tepo" sul foglio,Scrivete X sul foglio,tepo,t,e,p,front,mid-high,coronal,labial,0,94,94,60,space,1.15330719948,2018_Sep_07_1744,60.35838250107929,italian-egg,it17,
48,Ripete "pico" da sempre,Ripete X da sempre,pico,p,i,k,front,high,labial,velar,0,95,95,47,space,1.11910390854,2018_Sep_07_1744,60.35838250107929,italian-egg,it17,
126,Ha detto "chipo" sei volte,Ha detto X sei volte,chipo,k,i,p,front,high,velar,labial,0,96,96,125,space,1.27013802528,2018_Sep_07_1744,60.35838250107929,italian-egg,it17,
7,Sentivo "pepo" di nuovo,Sentivo X di nuovo,pepo,p,e,p,front,mid-high,labial,labial,0,97,97,6,space,1.10143899918,2018_Sep_07_1744,60.35838250107929,italian-egg,it17,
34,Ha detto "puto" sei volte,Ha detto X sei volte,puto,p,u,t,back,high,labial,coronal,0,98,98,33,space,1.0531270504,2018_Sep_07_1744,60.35838250107929,italian-egg,it17,
91,Sentivo "toto" di nuovo,Sentivo X di nuovo,toto,t,o,t,back,mid-low,coronal,coronal,0,99,99,90,space,0.969430923462,2018_Sep_07_1744,60.35838250107929,italian-egg,it17,
156,Ripete "cuto" da sempre,Ripete X da sempre,cuto,k,u,t,back,high,velar,coronal,0,100,100,155,space,1.12096095085,2018_Sep_07_1744,60.35838250107929,italian-egg,it17,
95,Sentivo "tuto" di nuovo,Sentivo X di nuovo,tuto,t,u,t,back,high,coronal,coronal,0,101,101,94,space,0.984563827515,2018_Sep_07_1744,60.35838250107929,italian-egg,it17,
87,Sentivo "tito" di nuovo,Sentivo X di nuovo,tito,t,i,t,front,high,coronal,coronal,0,102,102,86,space,0.902643918991,2018_Sep_07_1744,60.35838250107929,italian-egg,it17,
68,Ripete "tipo" da sempre,Ripete X da sempre,tipo,t,i,p,front,high,coronal,labial,0,103,103,67,space,1.06997704506,2018_Sep_07_1744,60.35838250107929,italian-egg,it17,
111,Sentivo "toco" di nuovo,Sentivo X di nuovo,toco,t,o,k,back,mid-low,coronal,velar,0,104,104,110,space,0.852464914322,2018_Sep_07_1744,60.35838250107929,italian-egg,it17,
127,Sentivo "chipo" di nuovo,Sentivo X di nuovo,chipo,k,i,p,front,high,velar,labial,0,105,105,126,space,0.904016971588,2018_Sep_07_1744,60.35838250107929,italian-egg,it17,
107,Sentivo "tico" di nuovo,Sentivo X di nuovo,tico,t,i,k,front,high,coronal,velar,0,106,106,106,space,0.819388866425,2018_Sep_07_1744,60.35838250107929,italian-egg,it17,
36,Ripete "puto" da sempre,Ripete X da sempre,puto,p,u,t,back,high,labial,coronal,0,107,107,35,space,0.802605867386,2018_Sep_07_1744,60.35838250107929,italian-egg,it17,
165,Scrivete "coco" sul foglio,Scrivete X sul foglio,coco,k,o,k,back,mid-low,velar,velar,0,108,108,164,space,1.15358805656,2018_Sep_07_1744,60.35838250107929,italian-egg,it17,
146,Ha detto "chito" sei volte,Ha detto X sei volte,chito,k,i,t,front,high,velar,coronal,0,109,109,145,space,1.02907180786,2018_Sep_07_1744,60.35838250107929,italian-egg,it17,
19,Sentivo "pupo" di nuovo,Sentivo X di nuovo,pupo,p,u,p,back,high,labial,labial,0,110,110,18,space,1.08677983284,2018_Sep_07_1744,60.35838250107929,italian-egg,it17,
70,Ha detto "topo" sei volte,Ha detto X sei volte,topo,t,o,p,back,mid-low,coronal,labial,0,111,111,69,space,1.11935091019,2018_Sep_07_1744,60.35838250107929,italian-egg,it17,
72,Ripete "topo" da sempre,Ripete X da sempre,topo,t,o,p,back,mid-low,coronal,labial,0,112,112,71,space,1.0537109375,2018_Sep_07_1744,60.35838250107929,italian-egg,it17,
47,Sentivo "pico" di nuovo,Sentivo X di nuovo,pico,p,i,k,front,high,labial,velar,0,113,113,46,space,0.821793079376,2018_Sep_07_1744,60.35838250107929,italian-egg,it17,
9,Scrivete "pipo" sul foglio,Scrivete X sul foglio,pipo,p,i,p,front,high,labial,labial,0,114,114,8,space,1.06435394287,2018_Sep_07_1744,60.35838250107929,italian-egg,it17,
60,Ripete "tapo" da sempre,Ripete X da sempre,tapo,t,a,p,central,low,coronal,labial,0,115,115,59,space,2.53899288177,2018_Sep_07_1744,60.35838250107929,italian-egg,it17,
79,Sentivo "tato" di nuovo,Sentivo X di nuovo,tato,t,a,t,central,low,coronal,coronal,0,116,116,78,space,1.07116603851,2018_Sep_07_1744,60.35838250107929,italian-egg,it17,
35,Sentivo "puto" di nuovo,Sentivo X di nuovo,puto,p,u,t,back,high,labial,coronal,0,117,117,34,space,0.942300081253,2018_Sep_07_1744,60.35838250107929,italian-egg,it17,
136,Ripete "cupo" da sempre,Ripete X da sempre,cupo,k,u,p,back,high,velar,labial,0,118,118,135,space,1.11961007118,2018_Sep_07_1744,60.35838250107929,italian-egg,it17,
130,Ha detto "copo" sei volte,Ha detto X sei volte,copo,k,o,p,back,mid-low,velar,labial,0,119,119,129,space,1.01894783974,2018_Sep_07_1744,60.35838250107929,italian-egg,it17,
135,Sentivo "cupo" di nuovo,Sentivo X di nuovo,cupo,k,u,p,back,high,velar,labial,0,120,120,134,space,0.953889131546,2018_Sep_07_1744,60.35838250107929,italian-egg,it17,
71,Sentivo "topo" di nuovo,Sentivo X di nuovo,topo,t,o,p,back,mid-low,coronal,labial,0,121,121,70,space,0.871281147003,2018_Sep_07_1744,60.35838250107929,italian-egg,it17,
141,Scrivete "cheto" sul foglio,Scrivete X sul foglio,cheto,k,e,t,front,mid-high,velar,coronal,0,122,122,140,space,1.0381538868,2018_Sep_07_1744,60.35838250107929,italian-egg,it17,
144,Ripete "cheto" da sempre,Ripete X da sempre,cheto,k,e,t,front,mid-high,velar,coronal,0,123,123,143,space,1.19649815559,2018_Sep_07_1744,60.35838250107929,italian-egg,it17,
50,Ha detto "poco" sei volte,Ha detto X sei volte,poco,p,o,k,back,mid-low,labial,velar,0,124,124,49,space,1.02096605301,2018_Sep_07_1744,60.35838250107929,italian-egg,it17,
104,Ripete "teco" da sempre,Ripete X da sempre,teco,t,e,k,front,mid-high,coronal,velar,0,125,125,103,space,1.00393795967,2018_Sep_07_1744,60.35838250107929,italian-egg,it17,
139,Sentivo "cato" di nuovo,Sentivo X di nuovo,cato,k,a,t,central,low,velar,coronal,0,126,126,138,space,0.820480823517,2018_Sep_07_1744,60.35838250107929,italian-egg,it17,
152,Ripete "coto" da sempre,Ripete X da sempre,coto,k,o,t,back,mid-low,velar,coronal,0,127,127,151,space,0.853297948837,2018_Sep_07_1744,60.35838250107929,italian-egg,it17,
129,Scrivete "copo" sul foglio,Scrivete X sul foglio,copo,k,o,p,back,mid-low,velar,labial,0,128,128,128,space,0.902289152145,2018_Sep_07_1744,60.35838250107929,italian-egg,it17,
69,Scrivete "topo" sul foglio,Scrivete X sul foglio,topo,t,o,p,back,mid-low,coronal,labial,0,129,129,68,space,0.921318054199,2018_Sep_07_1744,60.35838250107929,italian-egg,it17,
169,Scrivete "cuco" sul foglio,Scrivete X sul foglio,cuco,k,u,k,back,high,velar,velar,0,130,130,168,space,0.972307920456,2018_Sep_07_1744,60.35838250107929,italian-egg,it17,
74,Ha detto "tupo" sei volte,Ha detto X sei volte,tupo,t,u,p,back,high,coronal,labial,0,131,131,73,space,1.03580093384,2018_Sep_07_1744,60.35838250107929,italian-egg,it17,
120,Ripete "capo" da sempre,Ripete X da sempre,capo,k,a,p,central,low,velar,labial,0,132,132,119,space,1.01729893684,2018_Sep_07_1744,60.35838250107929,italian-egg,it17,
43,Sentivo "peco" di nuovo,Sentivo X di nuovo,peco,p,e,k,front,mid-high,labial,velar,0,133,133,42,space,0.77130484581,2018_Sep_07_1744,60.35838250107929,italian-egg,it17,
16,Ripete "popo" da sempre,Ripete X da sempre,popo,p,o,p,back,mid-low,labial,labial,0,134,134,15,space,0.971653938293,2018_Sep_07_1744,60.35838250107929,italian-egg,it17,
142,Ha detto "cheto" sei volte,Ha detto X sei volte,cheto,k,e,t,front,mid-high,velar,coronal,0,135,135,141,space,0.870758056641,2018_Sep_07_1744,60.35838250107929,italian-egg,it17,
29,Scrivete "poto" sul foglio,Scrivete X sul foglio,poto,p,o,t,back,mid-low,labial,coronal,0,136,136,28,space,0.887719869614,2018_Sep_07_1744,60.35838250107929,italian-egg,it17,
2,Ha detto "papo" sei volte,Ha detto X sei volte,papo,p,a,p,central,low,labial,labial,0,137,137,1,space,1.07195687294,2018_Sep_07_1744,60.35838250107929,italian-egg,it17,
54,Ha detto "puco" sei volte,Ha detto X sei volte,puco,p,u,k,back,high,labial,velar,0,138,138,53,space,1.02194881439,2018_Sep_07_1744,60.35838250107929,italian-egg,it17,
149,Scrivete "coto" sul foglio,Scrivete X sul foglio,coto,k,o,t,back,mid-low,velar,coronal,0,139,139,148,space,1.18743801117,2018_Sep_07_1744,60.35838250107929,italian-egg,it17,
93,Scrivete "tuto" sul foglio,Scrivete X sul foglio,tuto,t,u,t,back,high,coronal,coronal,0,140,140,92,space,1.03855204582,2018_Sep_07_1744,60.35838250107929,italian-egg,it17,
160,Ripete "checo" da sempre,Ripete X da sempre,checo,k,e,k,front,mid-high,velar,velar,0,141,141,159,space,0.803784132004,2018_Sep_07_1744,60.35838250107929,italian-egg,it17,
94,Ha detto "tuto" sei volte,Ha detto X sei volte,tuto,t,u,t,back,high,coronal,coronal,0,142,142,93,space,0.987452030182,2018_Sep_07_1744,60.35838250107929,italian-egg,it17,
22,Ha detto "pato" sei volte,Ha detto X sei volte,pato,p,a,t,central,low,labial,coronal,0,143,143,21,space,1.1382920742,2018_Sep_07_1744,60.35838250107929,italian-egg,it17,
62,Ha detto "tepo" sei volte,Ha detto X sei volte,tepo,t,e,p,front,mid-high,coronal,labial,0,144,144,61,space,1.01903390884,2018_Sep_07_1744,60.35838250107929,italian-egg,it17,
164,Ripete "chico" da sempre,Ripete X da sempre,chico,k,i,k,front,high,velar,velar,0,145,145,163,space,1.10378813744,2018_Sep_07_1744,60.35838250107929,italian-egg,it17,
82,Ha detto "teto" sei volte,Ha detto X sei volte,teto,t,e,t,front,mid-high,coronal,coronal,0,146,146,81,space,1.20330119133,2018_Sep_07_1744,60.35838250107929,italian-egg,it17,
49,Scrivete "poco" sul foglio,Scrivete X sul foglio,poco,p,o,k,back,mid-low,labial,velar,0,147,147,48,space,1.30404901505,2018_Sep_07_1744,60.35838250107929,italian-egg,it17,
11,Sentivo "pipo" di nuovo,Sentivo X di nuovo,pipo,p,i,p,front,high,labial,labial,0,148,148,10,space,1.08615112305,2018_Sep_07_1744,60.35838250107929,italian-egg,it17,
65,Scrivete "tipo" sul foglio,Scrivete X sul foglio,tipo,t,i,p,front,high,coronal,labial,0,149,149,64,space,1.15123510361,2018_Sep_07_1744,60.35838250107929,italian-egg,it17,
15,Sentivo "popo" di nuovo,Sentivo X di nuovo,popo,p,o,p,back,mid-low,labial,labial,0,150,150,14,space,1.17021799088,2018_Sep_07_1744,60.35838250107929,italian-egg,it17,
6,Ha detto "pepo" sei volte,Ha detto X sei volte,pepo,p,e,p,front,mid-high,labial,labial,0,151,151,5,space,1.18799495697,2018_Sep_07_1744,60.35838250107929,italian-egg,it17,
124,Ripete "chepo" da sempre,Ripete X da sempre,chepo,k,e,p,front,mid-high,velar,labial,0,152,152,123,space,1.23711800575,2018_Sep_07_1744,60.35838250107929,italian-egg,it17,
28,Ripete "pito" da sempre,Ripete X da sempre,pito,p,i,t,front,high,labial,coronal,0,153,153,27,space,1.16866397858,2018_Sep_07_1744,60.35838250107929,italian-egg,it17,
17,Scrivete "pupo" sul foglio,Scrivete X sul foglio,pupo,p,u,p,back,high,labial,labial,0,154,154,16,space,1.30193591118,2018_Sep_07_1744,60.35838250107929,italian-egg,it17,
108,Ripete "tico" da sempre,Ripete X da sempre,tico,t,i,k,front,high,coronal,velar,0,155,155,107,space,1.10228300095,2018_Sep_07_1744,60.35838250107929,italian-egg,it17,
99,Sentivo "taco" di nuovo,Sentivo X di nuovo,taco,t,a,k,central,low,coronal,velar,0,156,156,98,space,1.03606915474,2018_Sep_07_1744,60.35838250107929,italian-egg,it17,
38,Ha detto "paco" sei volte,Ha detto X sei volte,paco,p,a,k,central,low,labial,velar,0,157,157,37,space,0.987097024918,2018_Sep_07_1744,60.35838250107929,italian-egg,it17,
4,Ripete "papo" da sempre,Ripete X da sempre,papo,p,a,p,central,low,labial,labial,0,158,158,3,space,1.13667201996,2018_Sep_07_1744,60.35838250107929,italian-egg,it17,
85,Scrivete "tito" sul foglio,Scrivete X sul foglio,tito,t,i,t,front,high,coronal,coronal,0,159,159,84,space,1.15176606178,2018_Sep_07_1744,60.35838250107929,italian-egg,it17,
27,Sentivo "pito" di nuovo,Sentivo X di nuovo,pito,p,i,t,front,high,labial,coronal,0,160,160,26,space,0.869052171707,2018_Sep_07_1744,60.35838250107929,italian-egg,it17,
83,Sentivo "teto" di nuovo,Sentivo X di nuovo,teto,t,e,t,front,mid-high,coronal,coronal,0,161,161,82,space,0.903645038605,2018_Sep_07_1744,60.35838250107929,italian-egg,it17,
113,Scrivete "tuco" sul foglio,Scrivete X sul foglio,tuco,t,u,k,back,high,coronal,velar,0,162,162,112,space,0.903740882874,2018_Sep_07_1744,60.35838250107929,italian-egg,it17,
155,Sentivo "cuto" di nuovo,Sentivo X di nuovo,cuto,k,u,t,back,high,velar,coronal,0,163,163,154,space,1.01972794533,2018_Sep_07_1744,60.35838250107929,italian-egg,it17,
114,Ha detto "tuco" sei volte,Ha detto X sei volte,tuco,t,u,k,back,high,coronal,velar,0,164,164,113,space,1.06867098808,2018_Sep_07_1744,60.35838250107929,italian-egg,it17,
46,Ha detto "pico" sei volte,Ha detto X sei volte,pico,p,i,k,front,high,labial,velar,0,165,165,45,space,1.15235185623,2018_Sep_07_1744,60.35838250107929,italian-egg,it17,
18,Ha detto "pupo" sei volte,Ha detto X sei volte,pupo,p,u,p,back,high,labial,labial,0,166,166,17,space,0.835027933121,2018_Sep_07_1744,60.35838250107929,italian-egg,it17,
112,Ripete "toco" da sempre,Ripete X da sempre,toco,t,o,k,back,mid-low,coronal,velar,0,167,167,111,space,1.10307002068,2018_Sep_07_1744,60.35838250107929,italian-egg,it17,
78,Ha detto "tato" sei volte,Ha detto X sei volte,tato,t,a,t,central,low,coronal,coronal,0,168,168,77,space,1.0861518383,2018_Sep_07_1744,60.35838250107929,italian-egg,it17,
171,Sentivo "cuco" di nuovo,Sentivo X di nuovo,cuco,k,u,k,back,high,velar,velar,0,169,169,170,space,2.45364785194,2018_Sep_07_1744,60.35838250107929,italian-egg,it17,
122,Ha detto "chepo" sei volte,Ha detto X sei volte,chepo,k,e,p,front,mid-high,velar,labial,0,170,170,121,space,1.13661003113,2018_Sep_07_1744,60.35838250107929,italian-egg,it17,
56,Ripete "puco" da sempre,Ripete X da sempre,puco,p,u,k,back,high,labial,velar,0,171,171,55,space,1.15179109573,2018_Sep_07_1744,60.35838250107929,italian-egg,it17,
