index,burst,voicing,file_name,vowel,correct_answer,side_condition,condition,trials_7.thisRepN,trials_7.thisTrialN,trials_7.thisN,trials_7.thisIndex,trials_3.thisRepN,trials_3.thisTrialN,trials_3.thisN,trials_3.thisIndex,trials_4.thisRepN,trials_4.thisTrialN,trials_4.thisN,trials_4.thisIndex,trials_5.thisRepN,trials_5.thisTrialN,trials_5.thisN,trials_5.thisIndex,trials_6.thisRepN,trials_6.thisTrialN,trials_6.thisN,trials_6.thisIndex,key_resp_5.keys,key_resp_5.rt,key_resp_9.keys,key_resp_9.rt,key_resp_10.keys,key_resp_10.rt,key_resp_11.keys,key_resp_11.rt,key_resp_12.keys,key_resp_12.rt,key_resp_6.keys,key_resp_6.corr,key_resp_6.rt,key_resp_7.keys,key_resp_7.rt,key_resp_8.keys,key_resp_8.rt,date,frameRate,expName,participant,
,,,,,,,,0,0,0,0,,,,,,,,,,,,,,,,,space,12.6102559566,space,4.92175507545,space,10.8567140102,space,10.7404458523,,,,,,,,,,2018_Jan_22_1302,59.9721751564,perceptual-pilot,m002,
,,,,,,,,,,,,,,,,,,,,,,,,,,,,,,,,,,,,space,11.8577458858,,,,,,,,2018_Jan_22_1302,59.9721751564,perceptual-pilot,m002,
6,5,0,../data/raw/stimuli/putu0.wav,u,z,t_left,voicing,,,,,,,,,0,0,0,0,0,0,0,5,,,,,,,,,,,,,,,z,1,2.10227608681,,,,,2018_Jan_22_1302,59.9721751564,perceptual-pilot,m002,
5,0,5,../data/raw/stimuli/pudu.wav,u,slash,t_left,confound,,,,,,,,,0,0,0,0,0,1,1,4,,,,,,,,,,,,,,,slash,1,0.502774000168,,,,,2018_Jan_22_1302,59.9721751564,perceptual-pilot,m002,
2,5,0,../data/raw/stimuli/pata0.wav,a,z,t_left,voicing,,,,,,,,,0,0,0,0,0,2,2,1,,,,,,,,,,,,,,,z,1,0.669387102127,,,,,2018_Jan_22_1302,59.9721751564,perceptual-pilot,m002,
4,5,0,../data/raw/stimuli/piti0.wav,i,z,t_left,voicing,,,,,,,,,0,0,0,0,0,3,3,3,,,,,,,,,,,,,,,z,1,0.636618852615,,,,,2018_Jan_22_1302,59.9721751564,perceptual-pilot,m002,
3,0,5,../data/raw/stimuli/pidi.wav,i,slash,t_left,confound,,,,,,,,,0,0,0,0,0,4,4,2,,,,,,,,,,,,,,,slash,1,0.353146791458,,,,,2018_Jan_22_1302,59.9721751564,perceptual-pilot,m002,
1,0,5,../data/raw/stimuli/pada.wav,a,slash,t_left,confound,,,,,,,,,0,0,0,0,0,5,5,0,,,,,,,,,,,,,,,slash,1,0.384728908539,,,,,2018_Jan_22_1302,59.9721751564,perceptual-pilot,m002,
1,0,5,../data/raw/stimuli/pada.wav,a,slash,t_left,confound,,,,,,,,,0,0,0,0,1,0,6,0,,,,,,,,,,,,,,,slash,1,0.186185121536,,,,,2018_Jan_22_1302,59.9721751564,perceptual-pilot,m002,
4,5,0,../data/raw/stimuli/piti0.wav,i,z,t_left,voicing,,,,,,,,,0,0,0,0,1,1,7,3,,,,,,,,,,,,,,,z,1,0.235065937042,,,,,2018_Jan_22_1302,59.9721751564,perceptual-pilot,m002,
5,0,5,../data/raw/stimuli/pudu.wav,u,slash,t_left,confound,,,,,,,,,0,0,0,0,1,2,8,4,,,,,,,,,,,,,,,slash,1,0.233007907867,,,,,2018_Jan_22_1302,59.9721751564,perceptual-pilot,m002,
3,0,5,../data/raw/stimuli/pidi.wav,i,slash,t_left,confound,,,,,,,,,0,0,0,0,1,3,9,2,,,,,,,,,,,,,,,slash,1,0.31935095787,,,,,2018_Jan_22_1302,59.9721751564,perceptual-pilot,m002,
2,5,0,../data/raw/stimuli/pata0.wav,a,z,t_left,voicing,,,,,,,,,0,0,0,0,1,4,10,1,,,,,,,,,,,,,,,z,1,0.202924013138,,,,,2018_Jan_22_1302,59.9721751564,perceptual-pilot,m002,
6,5,0,../data/raw/stimuli/putu0.wav,u,z,t_left,voicing,,,,,,,,,0,0,0,0,1,5,11,5,,,,,,,,,,,,,,,z,1,0.736511945724,,,,,2018_Jan_22_1302,59.9721751564,perceptual-pilot,m002,
6,5,0,../data/raw/stimuli/putu0.wav,u,z,t_left,voicing,,,,,,,,,0,0,0,0,2,0,12,5,,,,,,,,,,,,,,,z,1,0.452214002609,,,,,2018_Jan_22_1302,59.9721751564,perceptual-pilot,m002,
3,0,5,../data/raw/stimuli/pidi.wav,i,slash,t_left,confound,,,,,,,,,0,0,0,0,2,1,13,2,,,,,,,,,,,,,,,slash,1,0.3191010952,,,,,2018_Jan_22_1302,59.9721751564,perceptual-pilot,m002,
2,5,0,../data/raw/stimuli/pata0.wav,a,z,t_left,voicing,,,,,,,,,0,0,0,0,2,2,14,1,,,,,,,,,,,,,,,z,1,0.35265994072,,,,,2018_Jan_22_1302,59.9721751564,perceptual-pilot,m002,
4,5,0,../data/raw/stimuli/piti0.wav,i,z,t_left,voicing,,,,,,,,,0,0,0,0,2,3,15,3,,,,,,,,,,,,,,,z,1,0.40279006958,,,,,2018_Jan_22_1302,59.9721751564,perceptual-pilot,m002,
5,0,5,../data/raw/stimuli/pudu.wav,u,slash,t_left,confound,,,,,,,,,0,0,0,0,2,4,16,4,,,,,,,,,,,,,,,slash,1,0.336354970932,,,,,2018_Jan_22_1302,59.9721751564,perceptual-pilot,m002,
1,0,5,../data/raw/stimuli/pada.wav,a,slash,t_left,confound,,,,,,,,,0,0,0,0,2,5,17,0,,,,,,,,,,,,,,,slash,1,0.285893917084,,,,,2018_Jan_22_1302,59.9721751564,perceptual-pilot,m002,
6,5,0,../data/raw/stimuli/putu0.wav,u,z,t_left,voicing,,,,,,,,,0,0,0,0,3,0,18,5,,,,,,,,,,,,,,,z,1,0.252252817154,,,,,2018_Jan_22_1302,59.9721751564,perceptual-pilot,m002,
5,0,5,../data/raw/stimuli/pudu.wav,u,slash,t_left,confound,,,,,,,,,0,0,0,0,3,1,19,4,,,,,,,,,,,,,,,slash,1,0.369134902954,,,,,2018_Jan_22_1302,59.9721751564,perceptual-pilot,m002,
3,0,5,../data/raw/stimuli/pidi.wav,i,slash,t_left,confound,,,,,,,,,0,0,0,0,3,2,20,2,,,,,,,,,,,,,,,slash,1,0.418833971024,,,,,2018_Jan_22_1302,59.9721751564,perceptual-pilot,m002,
2,5,0,../data/raw/stimuli/pata0.wav,a,z,t_left,voicing,,,,,,,,,0,0,0,0,3,3,21,1,,,,,,,,,,,,,,,z,1,0.26905298233,,,,,2018_Jan_22_1302,59.9721751564,perceptual-pilot,m002,
4,5,0,../data/raw/stimuli/piti0.wav,i,z,t_left,voicing,,,,,,,,,0,0,0,0,3,4,22,3,,,,,,,,,,,,,,,z,1,0.303170919418,,,,,2018_Jan_22_1302,59.9721751564,perceptual-pilot,m002,
1,0,5,../data/raw/stimuli/pada.wav,a,slash,t_left,confound,,,,,,,,,0,0,0,0,3,5,23,0,,,,,,,,,,,,,,,slash,1,0.202306985855,,,,,2018_Jan_22_1302,59.9721751564,perceptual-pilot,m002,
3,0,5,../data/raw/stimuli/pidi.wav,i,slash,t_left,confound,,,,,,,,,0,0,0,0,4,0,24,2,,,,,,,,,,,,,,,slash,1,0.152832984924,,,,,2018_Jan_22_1302,59.9721751564,perceptual-pilot,m002,
5,0,5,../data/raw/stimuli/pudu.wav,u,slash,t_left,confound,,,,,,,,,0,0,0,0,4,1,25,4,,,,,,,,,,,,,,,slash,1,0.202950000763,,,,,2018_Jan_22_1302,59.9721751564,perceptual-pilot,m002,
6,5,0,../data/raw/stimuli/putu0.wav,u,z,t_left,voicing,,,,,,,,,0,0,0,0,4,2,26,5,,,,,,,,,,,,,,,z,1,0.135324001312,,,,,2018_Jan_22_1302,59.9721751564,perceptual-pilot,m002,
2,5,0,../data/raw/stimuli/pata0.wav,a,z,t_left,voicing,,,,,,,,,0,0,0,0,4,3,27,1,,,,,,,,,,,,,,,z,1,0.170043945312,,,,,2018_Jan_22_1302,59.9721751564,perceptual-pilot,m002,
4,5,0,../data/raw/stimuli/piti0.wav,i,z,t_left,voicing,,,,,,,,,0,0,0,0,4,4,28,3,,,,,,,,,,,,,,,z,1,0.21844291687,,,,,2018_Jan_22_1302,59.9721751564,perceptual-pilot,m002,
1,0,5,../data/raw/stimuli/pada.wav,a,slash,t_left,confound,,,,,,,,,0,0,0,0,4,5,29,0,,,,,,,,,,,,,,,slash,1,0.23615694046,,,,,2018_Jan_22_1302,59.9721751564,perceptual-pilot,m002,
33,3,0,../data/raw/stimuli/pudu3.wav,u,,t_left,burst,,,,,,,,,0,0,0,0,,,,,0,0,0,32,,,,,,,,,,,,,,space,5.85564303398,z,0.469321966171,2018_Jan_22_1302,59.9721751564,perceptual-pilot,m002,
32,2,0,../data/raw/stimuli/pudu2.wav,u,,t_left,burst,,,,,,,,,0,0,0,0,,,,,0,1,1,31,,,,,,,,,,,,,,,,z,0.369416952133,2018_Jan_22_1302,59.9721751564,perceptual-pilot,m002,
16,0,0,../data/raw/stimuli/pidi0.wav,i,,t_left,burst,,,,,,,,,0,0,0,0,,,,,0,2,2,15,,,,,,,,,,,,,,,,z,0.319321155548,2018_Jan_22_1302,59.9721751564,perceptual-pilot,m002,
39,5,3,../data/raw/stimuli/putu3.wav,u,,t_left,voicing,,,,,,,,,0,0,0,0,,,,,0,3,3,38,,,,,,,,,,,,,,,,slash,0.818190097809,2018_Jan_22_1302,59.9721751564,perceptual-pilot,m002,
10,5,2,../data/raw/stimuli/pata2.wav,a,,t_left,voicing,,,,,,,,,0,0,0,0,,,,,0,4,4,9,,,,,,,,,,,,,,,,z,0.482875823975,2018_Jan_22_1302,59.9721751564,perceptual-pilot,m002,
11,5,3,../data/raw/stimuli/pata3.wav,a,,t_left,voicing,,,,,,,,,0,0,0,0,,,,,0,5,5,10,,,,,,,,,,,,,,,,z,0.569391965866,2018_Jan_22_1302,59.9721751564,perceptual-pilot,m002,
18,2,0,../data/raw/stimuli/pidi2.wav,i,,t_left,burst,,,,,,,,,0,0,0,0,,,,,0,6,6,17,,,,,,,,,,,,,,,,z,0.319349050522,2018_Jan_22_1302,59.9721751564,perceptual-pilot,m002,
14,5,6,../data/raw/stimuli/pata6.wav,a,,t_left,voicing,,,,,,,,,0,0,0,0,,,,,0,7,7,13,,,,,,,,,,,,,,,,slash,0.485664129257,2018_Jan_22_1302,59.9721751564,perceptual-pilot,m002,
8,5,0,../data/raw/stimuli/pata0.wav,a,,t_left,voicing,,,,,,,,,0,0,0,0,,,,,0,8,8,7,,,,,,,,,,,,,,,,z,0.318222999573,2018_Jan_22_1302,59.9721751564,perceptual-pilot,m002,
13,5,5,../data/raw/stimuli/pata5.wav,a,,t_left,voicing,,,,,,,,,0,0,0,0,,,,,0,9,9,12,,,,,,,,,,,,,,,,slash,0.418792963028,2018_Jan_22_1302,59.9721751564,perceptual-pilot,m002,
6,4,0,../data/raw/stimuli/pada4.wav,a,,t_left,burst,,,,,,,,,0,0,0,0,,,,,0,10,10,5,,,,,,,,,,,,,,,,z,0.303128957748,2018_Jan_22_1302,59.9721751564,perceptual-pilot,m002,
20,4,0,../data/raw/stimuli/pidi4.wav,i,,t_left,burst,,,,,,,,,0,0,0,0,,,,,0,11,11,19,,,,,,,,,,,,,,,,z,0.367928028107,2018_Jan_22_1302,59.9721751564,perceptual-pilot,m002,
30,0,0,../data/raw/stimuli/pudu0.wav,u,,t_left,burst,,,,,,,,,0,0,0,0,,,,,0,12,12,29,,,,,,,,,,,,,,,,slash,0.501502990723,2018_Jan_22_1302,59.9721751564,perceptual-pilot,m002,
4,2,0,../data/raw/stimuli/pada2.wav,a,,t_left,burst,,,,,,,,,0,0,0,0,,,,,0,13,13,3,,,,,,,,,,,,,,,,z,0.302977085114,2018_Jan_22_1302,59.9721751564,perceptual-pilot,m002,
9,5,1,../data/raw/stimuli/pata1.wav,a,,t_left,voicing,,,,,,,,,0,0,0,0,,,,,0,14,14,8,,,,,,,,,,,,,,,,z,0.333676815033,2018_Jan_22_1302,59.9721751564,perceptual-pilot,m002,
21,5,0,../data/raw/stimuli/pidi5.wav,i,,t_left,burst,,,,,,,,,0,0,0,0,,,,,0,15,15,20,,,,,,,,,,,,,,,,z,0.23561000824,2018_Jan_22_1302,59.9721751564,perceptual-pilot,m002,
34,4,0,../data/raw/stimuli/pudu4.wav,u,,t_left,burst,,,,,,,,,0,0,0,0,,,,,0,16,16,33,,,,,,,,,,,,,,,,z,0.402444124222,2018_Jan_22_1302,59.9721751564,perceptual-pilot,m002,
23,5,1,../data/raw/stimuli/piti1.wav,i,,t_left,voicing,,,,,,,,,0,0,0,0,,,,,0,17,17,22,,,,,,,,,,,,,,,,z,0.269702911377,2018_Jan_22_1302,59.9721751564,perceptual-pilot,m002,
1,0,5,../data/raw/stimuli/pada.wav,a,,t_left,confound,,,,,,,,,0,0,0,0,,,,,0,18,18,0,,,,,,,,,,,,,,,,slash,0.219435930252,2018_Jan_22_1302,59.9721751564,perceptual-pilot,m002,
15,0,5,../data/raw/stimuli/pidi.wav,i,,t_left,confound,,,,,,,,,0,0,0,0,,,,,0,19,19,14,,,,,,,,,,,,,,,,slash,0.303507089615,2018_Jan_22_1302,59.9721751564,perceptual-pilot,m002,
12,5,4,../data/raw/stimuli/pata4.wav,a,,t_left,voicing,,,,,,,,,0,0,0,0,,,,,0,20,20,11,,,,,,,,,,,,,,,,slash,0.852674007416,2018_Jan_22_1302,59.9721751564,perceptual-pilot,m002,
35,5,0,../data/raw/stimuli/pudu5.wav,u,,t_left,burst,,,,,,,,,0,0,0,0,,,,,0,21,21,34,,,,,,,,,,,,,,,,z,0.367429018021,2018_Jan_22_1302,59.9721751564,perceptual-pilot,m002,
2,0,0,../data/raw/stimuli/pada0.wav,a,,t_left,burst,,,,,,,,,0,0,0,0,,,,,0,22,22,1,,,,,,,,,,,,,,,,slash,0.669898986816,2018_Jan_22_1302,59.9721751564,perceptual-pilot,m002,
7,5,0,../data/raw/stimuli/pada5.wav,a,,t_left,burst,,,,,,,,,0,0,0,0,,,,,0,23,23,6,,,,,,,,,,,,,,,,z,0.336054086685,2018_Jan_22_1302,59.9721751564,perceptual-pilot,m002,
3,1,0,../data/raw/stimuli/pada1.wav,a,,t_left,burst,,,,,,,,,0,0,0,0,,,,,0,24,24,2,,,,,,,,,,,,,,,,slash,0.518538951874,2018_Jan_22_1302,59.9721751564,perceptual-pilot,m002,
38,5,2,../data/raw/stimuli/putu2.wav,u,,t_left,voicing,,,,,,,,,0,0,0,0,,,,,0,25,25,37,,,,,,,,,,,,,,,,slash,0.352574110031,2018_Jan_22_1302,59.9721751564,perceptual-pilot,m002,
24,5,2,../data/raw/stimuli/piti2.wav,i,,t_left,voicing,,,,,,,,,0,0,0,0,,,,,0,26,26,23,,,,,,,,,,,,,,,,z,0.267064094543,2018_Jan_22_1302,59.9721751564,perceptual-pilot,m002,
27,5,5,../data/raw/stimuli/piti5.wav,i,,t_left,voicing,,,,,,,,,0,0,0,0,,,,,0,27,27,26,,,,,,,,,,,,,,,,slash,0.252207040787,2018_Jan_22_1302,59.9721751564,perceptual-pilot,m002,
31,1,0,../data/raw/stimuli/pudu1.wav,u,,t_left,burst,,,,,,,,,0,0,0,0,,,,,0,28,28,30,,,,,,,,,,,,,,,,slash,0.368699789047,2018_Jan_22_1302,59.9721751564,perceptual-pilot,m002,
26,5,4,../data/raw/stimuli/piti4.wav,i,,t_left,voicing,,,,,,,,,0,0,0,0,,,,,0,29,29,25,,,,,,,,,,,,,,,,slash,0.385828018188,2018_Jan_22_1302,59.9721751564,perceptual-pilot,m002,
17,1,0,../data/raw/stimuli/pidi1.wav,i,,t_left,burst,,,,,,,,,0,0,0,0,,,,,0,30,30,16,,,,,,,,,,,,,,,,z,0.285734176636,2018_Jan_22_1302,59.9721751564,perceptual-pilot,m002,
5,3,0,../data/raw/stimuli/pada3.wav,a,,t_left,burst,,,,,,,,,0,0,0,0,,,,,0,31,31,4,,,,,,,,,,,,,,,,z,0.402802944183,2018_Jan_22_1302,59.9721751564,perceptual-pilot,m002,
22,5,0,../data/raw/stimuli/piti0.wav,i,,t_left,voicing,,,,,,,,,0,0,0,0,,,,,0,32,32,21,,,,,,,,,,,,,,,,z,0.252166986465,2018_Jan_22_1302,59.9721751564,perceptual-pilot,m002,
25,5,3,../data/raw/stimuli/piti3.wav,i,,t_left,voicing,,,,,,,,,0,0,0,0,,,,,0,33,33,24,,,,,,,,,,,,,,,,z,0.486369132996,2018_Jan_22_1302,59.9721751564,perceptual-pilot,m002,
19,3,0,../data/raw/stimuli/pidi3.wav,i,,t_left,burst,,,,,,,,,0,0,0,0,,,,,0,34,34,18,,,,,,,,,,,,,,,,z,0.336042165756,2018_Jan_22_1302,59.9721751564,perceptual-pilot,m002,
28,5,6,../data/raw/stimuli/piti6.wav,i,,t_left,voicing,,,,,,,,,0,0,0,0,,,,,0,35,35,27,,,,,,,,,,,,,,,,slash,0.18639087677,2018_Jan_22_1302,59.9721751564,perceptual-pilot,m002,
37,5,1,../data/raw/stimuli/putu1.wav,u,,t_left,voicing,,,,,,,,,0,0,0,0,,,,,0,36,36,36,,,,,,,,,,,,,,,,slash,0.452595949173,2018_Jan_22_1302,59.9721751564,perceptual-pilot,m002,
29,0,5,../data/raw/stimuli/pudu.wav,u,,t_left,confound,,,,,,,,,0,0,0,0,,,,,0,37,37,28,,,,,,,,,,,,,,,,slash,0.284130096436,2018_Jan_22_1302,59.9721751564,perceptual-pilot,m002,
36,5,0,../data/raw/stimuli/putu0.wav,u,,t_left,voicing,,,,,,,,,0,0,0,0,,,,,0,38,38,35,,,,,,,,,,,,,,,,z,0.219595909119,2018_Jan_22_1302,59.9721751564,perceptual-pilot,m002,
5,3,0,../data/raw/stimuli/pada3.wav,a,,t_left,burst,,,,,,,,,0,0,0,0,,,,,1,0,39,4,,,,,,,,,,,,,,,,z,0.284382104874,2018_Jan_22_1302,59.9721751564,perceptual-pilot,m002,
27,5,5,../data/raw/stimuli/piti5.wav,i,,t_left,voicing,,,,,,,,,0,0,0,0,,,,,1,1,40,26,,,,,,,,,,,,,,,,slash,0.403630971909,2018_Jan_22_1302,59.9721751564,perceptual-pilot,m002,
31,1,0,../data/raw/stimuli/pudu1.wav,u,,t_left,burst,,,,,,,,,0,0,0,0,,,,,1,2,41,30,,,,,,,,,,,,,,,,slash,0.33579492569,2018_Jan_22_1302,59.9721751564,perceptual-pilot,m002,
8,5,0,../data/raw/stimuli/pata0.wav,a,,t_left,voicing,,,,,,,,,0,0,0,0,,,,,1,3,42,7,,,,,,,,,,,,,,,,z,0.21882891655,2018_Jan_22_1302,59.9721751564,perceptual-pilot,m002,
6,4,0,../data/raw/stimuli/pada4.wav,a,,t_left,burst,,,,,,,,,0,0,0,0,,,,,1,4,43,5,,,,,,,,,,,,,,,,z,0.253084897995,2018_Jan_22_1302,59.9721751564,perceptual-pilot,m002,
33,3,0,../data/raw/stimuli/pudu3.wav,u,,t_left,burst,,,,,,,,,0,0,0,0,,,,,1,5,44,32,,,,,,,,,,,,,,,,z,0.40246295929,2018_Jan_22_1302,59.9721751564,perceptual-pilot,m002,
26,5,4,../data/raw/stimuli/piti4.wav,i,,t_left,voicing,,,,,,,,,0,0,0,0,,,,,1,6,45,25,,,,,,,,,,,,,,,,slash,0.452318906784,2018_Jan_22_1302,59.9721751564,perceptual-pilot,m002,
24,5,2,../data/raw/stimuli/piti2.wav,i,,t_left,voicing,,,,,,,,,0,0,0,0,,,,,1,7,46,23,,,,,,,,,,,,,,,,z,0.369072914124,2018_Jan_22_1302,59.9721751564,perceptual-pilot,m002,
18,2,0,../data/raw/stimuli/pidi2.wav,i,,t_left,burst,,,,,,,,,0,0,0,0,,,,,1,8,47,17,,,,,,,,,,,,,,,,z,0.384105920792,2018_Jan_22_1302,59.9721751564,perceptual-pilot,m002,
4,2,0,../data/raw/stimuli/pada2.wav,a,,t_left,burst,,,,,,,,,0,0,0,0,,,,,1,9,48,3,,,,,,,,,,,,,,,,z,0.285780906677,2018_Jan_22_1302,59.9721751564,perceptual-pilot,m002,
10,5,2,../data/raw/stimuli/pata2.wav,a,,t_left,voicing,,,,,,,,,0,0,0,0,,,,,1,10,49,9,,,,,,,,,,,,,,,,z,0.236104011536,2018_Jan_22_1302,59.9721751564,perceptual-pilot,m002,
36,5,0,../data/raw/stimuli/putu0.wav,u,,t_left,voicing,,,,,,,,,0,0,0,0,,,,,1,11,50,35,,,,,,,,,,,,,,,,z,0.33376288414,2018_Jan_22_1302,59.9721751564,perceptual-pilot,m002,
16,0,0,../data/raw/stimuli/pidi0.wav,i,,t_left,burst,,,,,,,,,0,0,0,0,,,,,1,12,51,15,,,,,,,,,,,,,,,,slash,0.169502973557,2018_Jan_22_1302,59.9721751564,perceptual-pilot,m002,
23,5,1,../data/raw/stimuli/piti1.wav,i,,t_left,voicing,,,,,,,,,0,0,0,0,,,,,1,13,52,22,,,,,,,,,,,,,,,,z,0.202443122864,2018_Jan_22_1302,59.9721751564,perceptual-pilot,m002,
32,2,0,../data/raw/stimuli/pudu2.wav,u,,t_left,burst,,,,,,,,,0,0,0,0,,,,,1,14,53,31,,,,,,,,,,,,,,,,z,0.268702030182,2018_Jan_22_1302,59.9721751564,perceptual-pilot,m002,
9,5,1,../data/raw/stimuli/pata1.wav,a,,t_left,voicing,,,,,,,,,0,0,0,0,,,,,1,15,54,8,,,,,,,,,,,,,,,,z,0.252582073212,2018_Jan_22_1302,59.9721751564,perceptual-pilot,m002,
3,1,0,../data/raw/stimuli/pada1.wav,a,,t_left,burst,,,,,,,,,0,0,0,0,,,,,1,16,55,2,,,,,,,,,,,,,,,,z,0.236179113388,2018_Jan_22_1302,59.9721751564,perceptual-pilot,m002,
12,5,4,../data/raw/stimuli/pata4.wav,a,,t_left,voicing,,,,,,,,,0,0,0,0,,,,,1,17,56,11,,,,,,,,,,,,,,,,slash,0.435757875443,2018_Jan_22_1302,59.9721751564,perceptual-pilot,m002,
38,5,2,../data/raw/stimuli/putu2.wav,u,,t_left,voicing,,,,,,,,,0,0,0,0,,,,,1,18,57,37,,,,,,,,,,,,,,,,slash,0.336202144623,2018_Jan_22_1302,59.9721751564,perceptual-pilot,m002,
22,5,0,../data/raw/stimuli/piti0.wav,i,,t_left,voicing,,,,,,,,,0,0,0,0,,,,,1,19,58,21,,,,,,,,,,,,,,,,z,0.253033161163,2018_Jan_22_1302,59.9721751564,perceptual-pilot,m002,
17,1,0,../data/raw/stimuli/pidi1.wav,i,,t_left,burst,,,,,,,,,0,0,0,0,,,,,1,20,59,16,,,,,,,,,,,,,,,,z,0.203098058701,2018_Jan_22_1302,59.9721751564,perceptual-pilot,m002,
37,5,1,../data/raw/stimuli/putu1.wav,u,,t_left,voicing,,,,,,,,,0,0,0,0,,,,,1,21,60,36,,,,,,,,,,,,,,,,slash,0.102004051208,2018_Jan_22_1302,59.9721751564,perceptual-pilot,m002,
34,4,0,../data/raw/stimuli/pudu4.wav,u,,t_left,burst,,,,,,,,,0,0,0,0,,,,,1,22,61,33,,,,,,,,,,,,,,,,slash,0.0505230426788,2018_Jan_22_1302,59.9721751564,perceptual-pilot,m002,
19,3,0,../data/raw/stimuli/pidi3.wav,i,,t_left,burst,,,,,,,,,0,0,0,0,,,,,1,23,62,18,,,,,,,,,,,,,,,,z,0.152627944946,2018_Jan_22_1302,59.9721751564,perceptual-pilot,m002,
1,0,5,../data/raw/stimuli/pada.wav,a,,t_left,confound,,,,,,,,,0,0,0,0,,,,,1,24,63,0,,,,,,,,,,,,,,,,slash,0.186160802841,2018_Jan_22_1302,59.9721751564,perceptual-pilot,m002,
13,5,5,../data/raw/stimuli/pata5.wav,a,,t_left,voicing,,,,,,,,,0,0,0,0,,,,,1,25,64,12,,,,,,,,,,,,,,,,slash,0.300462007523,2018_Jan_22_1302,59.9721751564,perceptual-pilot,m002,
11,5,3,../data/raw/stimuli/pata3.wav,a,,t_left,voicing,,,,,,,,,0,0,0,0,,,,,1,26,65,10,,,,,,,,,,,,,,,,slash,0.384763002396,2018_Jan_22_1302,59.9721751564,perceptual-pilot,m002,
15,0,5,../data/raw/stimuli/pidi.wav,i,,t_left,confound,,,,,,,,,0,0,0,0,,,,,1,27,66,14,,,,,,,,,,,,,,,,slash,0.319411993027,2018_Jan_22_1302,59.9721751564,perceptual-pilot,m002,
21,5,0,../data/raw/stimuli/pidi5.wav,i,,t_left,burst,,,,,,,,,0,0,0,0,,,,,1,28,67,20,,,,,,,,,,,,,,,,z,0.152667045593,2018_Jan_22_1302,59.9721751564,perceptual-pilot,m002,
25,5,3,../data/raw/stimuli/piti3.wav,i,,t_left,voicing,,,,,,,,,0,0,0,0,,,,,1,29,68,24,,,,,,,,,,,,,,,,slash,0.252557992935,2018_Jan_22_1302,59.9721751564,perceptual-pilot,m002,
7,5,0,../data/raw/stimuli/pada5.wav,a,,t_left,burst,,,,,,,,,0,0,0,0,,,,,1,30,69,6,,,,,,,,,,,,,,,,z,0.186540126801,2018_Jan_22_1302,59.9721751564,perceptual-pilot,m002,
28,5,6,../data/raw/stimuli/piti6.wav,i,,t_left,voicing,,,,,,,,,0,0,0,0,,,,,1,31,70,27,,,,,,,,,,,,,,,,slash,0.235613107681,2018_Jan_22_1302,59.9721751564,perceptual-pilot,m002,
39,5,3,../data/raw/stimuli/putu3.wav,u,,t_left,voicing,,,,,,,,,0,0,0,0,,,,,1,32,71,38,,,,,,,,,,,,,,,,slash,0.185539007187,2018_Jan_22_1302,59.9721751564,perceptual-pilot,m002,
30,0,0,../data/raw/stimuli/pudu0.wav,u,,t_left,burst,,,,,,,,,0,0,0,0,,,,,1,33,72,29,,,,,,,,,,,,,,,,z,0.150032997131,2018_Jan_22_1302,59.9721751564,perceptual-pilot,m002,
2,0,0,../data/raw/stimuli/pada0.wav,a,,t_left,burst,,,,,,,,,0,0,0,0,,,,,1,34,73,1,,,,,,,,,,,,,,,,slash,0.46929192543,2018_Jan_22_1302,59.9721751564,perceptual-pilot,m002,
29,0,5,../data/raw/stimuli/pudu.wav,u,,t_left,confound,,,,,,,,,0,0,0,0,,,,,1,35,74,28,,,,,,,,,,,,,,,,slash,0.186132907867,2018_Jan_22_1302,59.9721751564,perceptual-pilot,m002,
20,4,0,../data/raw/stimuli/pidi4.wav,i,,t_left,burst,,,,,,,,,0,0,0,0,,,,,1,36,75,19,,,,,,,,,,,,,,,,z,0.636122941971,2018_Jan_22_1302,59.9721751564,perceptual-pilot,m002,
14,5,6,../data/raw/stimuli/pata6.wav,a,,t_left,voicing,,,,,,,,,0,0,0,0,,,,,1,37,76,13,,,,,,,,,,,,,,,,slash,0.252772092819,2018_Jan_22_1302,59.9721751564,perceptual-pilot,m002,
35,5,0,../data/raw/stimuli/pudu5.wav,u,,t_left,burst,,,,,,,,,0,0,0,0,,,,,1,38,77,34,,,,,,,,,,,,,,,,slash,0.616448163986,2018_Jan_22_1302,59.9721751564,perceptual-pilot,m002,
23,5,1,../data/raw/stimuli/piti1.wav,i,,t_left,voicing,,,,,,,,,0,0,0,0,,,,,2,0,78,22,,,,,,,,,,,,,,,,z,0.184917211533,2018_Jan_22_1302,59.9721751564,perceptual-pilot,m002,
22,5,0,../data/raw/stimuli/piti0.wav,i,,t_left,voicing,,,,,,,,,0,0,0,0,,,,,2,1,79,21,,,,,,,,,,,,,,,,z,0.252725124359,2018_Jan_22_1302,59.9721751564,perceptual-pilot,m002,
29,0,5,../data/raw/stimuli/pudu.wav,u,,t_left,confound,,,,,,,,,0,0,0,0,,,,,2,2,80,28,,,,,,,,,,,,,,,,slash,0.153227090836,2018_Jan_22_1302,59.9721751564,perceptual-pilot,m002,
12,5,4,../data/raw/stimuli/pata4.wav,a,,t_left,voicing,,,,,,,,,0,0,0,0,,,,,2,3,81,11,,,,,,,,,,,,,,,,slash,0.152848005295,2018_Jan_22_1302,59.9721751564,perceptual-pilot,m002,
5,3,0,../data/raw/stimuli/pada3.wav,a,,t_left,burst,,,,,,,,,0,0,0,0,,,,,2,4,82,4,,,,,,,,,,,,,,,,z,0.186319112778,2018_Jan_22_1302,59.9721751564,perceptual-pilot,m002,
37,5,1,../data/raw/stimuli/putu1.wav,u,,t_left,voicing,,,,,,,,,0,0,0,0,,,,,2,5,83,36,,,,,,,,,,,,,,,,slash,0.419273138046,2018_Jan_22_1302,59.9721751564,perceptual-pilot,m002,
33,3,0,../data/raw/stimuli/pudu3.wav,u,,t_left,burst,,,,,,,,,0,0,0,0,,,,,2,6,84,32,,,,,,,,,,,,,,,,slash,0.30292391777,2018_Jan_22_1302,59.9721751564,perceptual-pilot,m002,
9,5,1,../data/raw/stimuli/pata1.wav,a,,t_left,voicing,,,,,,,,,0,0,0,0,,,,,2,7,85,8,,,,,,,,,,,,,,,,z,0.352274894714,2018_Jan_22_1302,59.9721751564,perceptual-pilot,m002,
25,5,3,../data/raw/stimuli/piti3.wav,i,,t_left,voicing,,,,,,,,,0,0,0,0,,,,,2,8,86,24,,,,,,,,,,,,,,,,z,0.936071872711,2018_Jan_22_1302,59.9721751564,perceptual-pilot,m002,
28,5,6,../data/raw/stimuli/piti6.wav,i,,t_left,voicing,,,,,,,,,0,0,0,0,,,,,2,9,87,27,,,,,,,,,,,,,,,,slash,0.20222401619,2018_Jan_22_1302,59.9721751564,perceptual-pilot,m002,
20,4,0,../data/raw/stimuli/pidi4.wav,i,,t_left,burst,,,,,,,,,0,0,0,0,,,,,2,10,88,19,,,,,,,,,,,,,,,,z,0.202906131744,2018_Jan_22_1302,59.9721751564,perceptual-pilot,m002,
36,5,0,../data/raw/stimuli/putu0.wav,u,,t_left,voicing,,,,,,,,,0,0,0,0,,,,,2,11,89,35,,,,,,,,,,,,,,,,z,0.386370897293,2018_Jan_22_1302,59.9721751564,perceptual-pilot,m002,
32,2,0,../data/raw/stimuli/pudu2.wav,u,,t_left,burst,,,,,,,,,0,0,0,0,,,,,2,12,90,31,,,,,,,,,,,,,,,,z,0.353094816208,2018_Jan_22_1302,59.9721751564,perceptual-pilot,m002,
17,1,0,../data/raw/stimuli/pidi1.wav,i,,t_left,burst,,,,,,,,,0,0,0,0,,,,,2,13,91,16,,,,,,,,,,,,,,,,slash,0.285890102386,2018_Jan_22_1302,59.9721751564,perceptual-pilot,m002,
30,0,0,../data/raw/stimuli/pudu0.wav,u,,t_left,burst,,,,,,,,,0,0,0,0,,,,,2,14,92,29,,,,,,,,,,,,,,,,slash,0.23646402359,2018_Jan_22_1302,59.9721751564,perceptual-pilot,m002,
24,5,2,../data/raw/stimuli/piti2.wav,i,,t_left,voicing,,,,,,,,,0,0,0,0,,,,,2,15,93,23,,,,,,,,,,,,,,,,z,0.185873031616,2018_Jan_22_1302,59.9721751564,perceptual-pilot,m002,
14,5,6,../data/raw/stimuli/pata6.wav,a,,t_left,voicing,,,,,,,,,0,0,0,0,,,,,2,16,94,13,,,,,,,,,,,,,,,,slash,0.352833986282,2018_Jan_22_1302,59.9721751564,perceptual-pilot,m002,
3,1,0,../data/raw/stimuli/pada1.wav,a,,t_left,burst,,,,,,,,,0,0,0,0,,,,,2,17,95,2,,,,,,,,,,,,,,,,slash,0.568940877914,2018_Jan_22_1302,59.9721751564,perceptual-pilot,m002,
10,5,2,../data/raw/stimuli/pata2.wav,a,,t_left,voicing,,,,,,,,,0,0,0,0,,,,,2,18,96,9,,,,,,,,,,,,,,,,z,0.502959012985,2018_Jan_22_1302,59.9721751564,perceptual-pilot,m002,
27,5,5,../data/raw/stimuli/piti5.wav,i,,t_left,voicing,,,,,,,,,0,0,0,0,,,,,2,19,97,26,,,,,,,,,,,,,,,,slash,0.352510929108,2018_Jan_22_1302,59.9721751564,perceptual-pilot,m002,
35,5,0,../data/raw/stimuli/pudu5.wav,u,,t_left,burst,,,,,,,,,0,0,0,0,,,,,2,20,98,34,,,,,,,,,,,,,,,,slash,0.169806957245,2018_Jan_22_1302,59.9721751564,perceptual-pilot,m002,
1,0,5,../data/raw/stimuli/pada.wav,a,,t_left,confound,,,,,,,,,0,0,0,0,,,,,2,21,99,0,,,,,,,,,,,,,,,,slash,0.169204950333,2018_Jan_22_1302,59.9721751564,perceptual-pilot,m002,
18,2,0,../data/raw/stimuli/pidi2.wav,i,,t_left,burst,,,,,,,,,0,0,0,0,,,,,2,22,100,17,,,,,,,,,,,,,,,,z,0.102839946747,2018_Jan_22_1302,59.9721751564,perceptual-pilot,m002,
19,3,0,../data/raw/stimuli/pidi3.wav,i,,t_left,burst,,,,,,,,,0,0,0,0,,,,,2,23,101,18,,,,,,,,,,,,,,,,z,0.419589996338,2018_Jan_22_1302,59.9721751564,perceptual-pilot,m002,
4,2,0,../data/raw/stimuli/pada2.wav,a,,t_left,burst,,,,,,,,,0,0,0,0,,,,,2,24,102,3,,,,,,,,,,,,,,,,z,0.702429056168,2018_Jan_22_1302,59.9721751564,perceptual-pilot,m002,
39,5,3,../data/raw/stimuli/putu3.wav,u,,t_left,voicing,,,,,,,,,0,0,0,0,,,,,2,25,103,38,,,,,,,,,,,,,,,,slash,0.334802150726,2018_Jan_22_1302,59.9721751564,perceptual-pilot,m002,
34,4,0,../data/raw/stimuli/pudu4.wav,u,,t_left,burst,,,,,,,,,0,0,0,0,,,,,2,26,104,33,,,,,,,,,,,,,,,,slash,0.250405073166,2018_Jan_22_1302,59.9721751564,perceptual-pilot,m002,
31,1,0,../data/raw/stimuli/pudu1.wav,u,,t_left,burst,,,,,,,,,0,0,0,0,,,,,2,27,105,30,,,,,,,,,,,,,,,,slash,0.150429010391,2018_Jan_22_1302,59.9721751564,perceptual-pilot,m002,
11,5,3,../data/raw/stimuli/pata3.wav,a,,t_left,voicing,,,,,,,,,0,0,0,0,,,,,2,28,106,10,,,,,,,,,,,,,,,,slash,0.703126907349,2018_Jan_22_1302,59.9721751564,perceptual-pilot,m002,
8,5,0,../data/raw/stimuli/pata0.wav,a,,t_left,voicing,,,,,,,,,0,0,0,0,,,,,2,29,107,7,,,,,,,,,,,,,,,,z,0.319558858871,2018_Jan_22_1302,59.9721751564,perceptual-pilot,m002,
16,0,0,../data/raw/stimuli/pidi0.wav,i,,t_left,burst,,,,,,,,,0,0,0,0,,,,,2,30,108,15,,,,,,,,,,,,,,,,slash,0.453392982483,2018_Jan_22_1302,59.9721751564,perceptual-pilot,m002,
2,0,0,../data/raw/stimuli/pada0.wav,a,,t_left,burst,,,,,,,,,0,0,0,0,,,,,2,31,109,1,,,,,,,,,,,,,,,,slash,0.453109025955,2018_Jan_22_1302,59.9721751564,perceptual-pilot,m002,
21,5,0,../data/raw/stimuli/pidi5.wav,i,,t_left,burst,,,,,,,,,0,0,0,0,,,,,2,32,110,20,,,,,,,,,,,,,,,,z,0.252740859985,2018_Jan_22_1302,59.9721751564,perceptual-pilot,m002,
7,5,0,../data/raw/stimuli/pada5.wav,a,,t_left,burst,,,,,,,,,0,0,0,0,,,,,2,33,111,6,,,,,,,,,,,,,,,,z,0.350545883179,2018_Jan_22_1302,59.9721751564,perceptual-pilot,m002,
15,0,5,../data/raw/stimuli/pidi.wav,i,,t_left,confound,,,,,,,,,0,0,0,0,,,,,2,34,112,14,,,,,,,,,,,,,,,,slash,0.152310848236,2018_Jan_22_1302,59.9721751564,perceptual-pilot,m002,
26,5,4,../data/raw/stimuli/piti4.wav,i,,t_left,voicing,,,,,,,,,0,0,0,0,,,,,2,35,113,25,,,,,,,,,,,,,,,,slash,0.28507900238,2018_Jan_22_1302,59.9721751564,perceptual-pilot,m002,
6,4,0,../data/raw/stimuli/pada4.wav,a,,t_left,burst,,,,,,,,,0,0,0,0,,,,,2,36,114,5,,,,,,,,,,,,,,,,z,0.251330137253,2018_Jan_22_1302,59.9721751564,perceptual-pilot,m002,
38,5,2,../data/raw/stimuli/putu2.wav,u,,t_left,voicing,,,,,,,,,0,0,0,0,,,,,2,37,115,37,,,,,,,,,,,,,,,,slash,0.235754966736,2018_Jan_22_1302,59.9721751564,perceptual-pilot,m002,
13,5,5,../data/raw/stimuli/pata5.wav,a,,t_left,voicing,,,,,,,,,0,0,0,0,,,,,2,38,116,12,,,,,,,,,,,,,,,,slash,0.269338846207,2018_Jan_22_1302,59.9721751564,perceptual-pilot,m002,
21,5,0,../data/raw/stimuli/pidi5.wav,i,,t_left,burst,,,,,,,,,0,0,0,0,,,,,3,0,117,20,,,,,,,,,,,,,,,,z,0.185693025589,2018_Jan_22_1302,59.9721751564,perceptual-pilot,m002,
25,5,3,../data/raw/stimuli/piti3.wav,i,,t_left,voicing,,,,,,,,,0,0,0,0,,,,,3,1,118,24,,,,,,,,,,,,,,,,slash,0.553071022034,2018_Jan_22_1302,59.9721751564,perceptual-pilot,m002,
22,5,0,../data/raw/stimuli/piti0.wav,i,,t_left,voicing,,,,,,,,,0,0,0,0,,,,,3,2,119,21,,,,,,,,,,,,,,,,z,0.285920143127,2018_Jan_22_1302,59.9721751564,perceptual-pilot,m002,
28,5,6,../data/raw/stimuli/piti6.wav,i,,t_left,voicing,,,,,,,,,0,0,0,0,,,,,3,3,120,27,,,,,,,,,,,,,,,,slash,0.185829162598,2018_Jan_22_1302,59.9721751564,perceptual-pilot,m002,
27,5,5,../data/raw/stimuli/piti5.wav,i,,t_left,voicing,,,,,,,,,0,0,0,0,,,,,3,4,121,26,,,,,,,,,,,,,,,,slash,0.219358921051,2018_Jan_22_1302,59.9721751564,perceptual-pilot,m002,
5,3,0,../data/raw/stimuli/pada3.wav,a,,t_left,burst,,,,,,,,,0,0,0,0,,,,,3,5,122,4,,,,,,,,,,,,,,,,z,0.219563007355,2018_Jan_22_1302,59.9721751564,perceptual-pilot,m002,
32,2,0,../data/raw/stimuli/pudu2.wav,u,,t_left,burst,,,,,,,,,0,0,0,0,,,,,3,6,123,31,,,,,,,,,,,,,,,,slash,0.236361026764,2018_Jan_22_1302,59.9721751564,perceptual-pilot,m002,
35,5,0,../data/raw/stimuli/pudu5.wav,u,,t_left,burst,,,,,,,,,0,0,0,0,,,,,3,7,124,34,,,,,,,,,,,,,,,,slash,0.386049032211,2018_Jan_22_1302,59.9721751564,perceptual-pilot,m002,
23,5,1,../data/raw/stimuli/piti1.wav,i,,t_left,voicing,,,,,,,,,0,0,0,0,,,,,3,8,125,22,,,,,,,,,,,,,,,,z,0.201966047287,2018_Jan_22_1302,59.9721751564,perceptual-pilot,m002,
14,5,6,../data/raw/stimuli/pata6.wav,a,,t_left,voicing,,,,,,,,,0,0,0,0,,,,,3,9,126,13,,,,,,,,,,,,,,,,slash,0.269624948502,2018_Jan_22_1302,59.9721751564,perceptual-pilot,m002,
19,3,0,../data/raw/stimuli/pidi3.wav,i,,t_left,burst,,,,,,,,,0,0,0,0,,,,,3,10,127,18,,,,,,,,,,,,,,,,z,0.300562858582,2018_Jan_22_1302,59.9721751564,perceptual-pilot,m002,
11,5,3,../data/raw/stimuli/pata3.wav,a,,t_left,voicing,,,,,,,,,0,0,0,0,,,,,3,11,128,10,,,,,,,,,,,,,,,,slash,0.203058004379,2018_Jan_22_1302,59.9721751564,perceptual-pilot,m002,
26,5,4,../data/raw/stimuli/piti4.wav,i,,t_left,voicing,,,,,,,,,0,0,0,0,,,,,3,12,129,25,,,,,,,,,,,,,,,,z,0.60219502449,2018_Jan_22_1302,59.9721751564,perceptual-pilot,m002,
10,5,2,../data/raw/stimuli/pata2.wav,a,,t_left,voicing,,,,,,,,,0,0,0,0,,,,,3,13,130,9,,,,,,,,,,,,,,,,slash,0.236153125763,2018_Jan_22_1302,59.9721751564,perceptual-pilot,m002,
15,0,5,../data/raw/stimuli/pidi.wav,i,,t_left,confound,,,,,,,,,0,0,0,0,,,,,3,14,131,14,,,,,,,,,,,,,,,,slash,0.286206960678,2018_Jan_22_1302,59.9721751564,perceptual-pilot,m002,
34,4,0,../data/raw/stimuli/pudu4.wav,u,,t_left,burst,,,,,,,,,0,0,0,0,,,,,3,15,132,33,,,,,,,,,,,,,,,,slash,0.736307859421,2018_Jan_22_1302,59.9721751564,perceptual-pilot,m002,
36,5,0,../data/raw/stimuli/putu0.wav,u,,t_left,voicing,,,,,,,,,0,0,0,0,,,,,3,16,133,35,,,,,,,,,,,,,,,,z,0.269652843475,2018_Jan_22_1302,59.9721751564,perceptual-pilot,m002,
9,5,1,../data/raw/stimuli/pata1.wav,a,,t_left,voicing,,,,,,,,,0,0,0,0,,,,,3,17,134,8,,,,,,,,,,,,,,,,slash,0.2198138237,2018_Jan_22_1302,59.9721751564,perceptual-pilot,m002,
17,1,0,../data/raw/stimuli/pidi1.wav,i,,t_left,burst,,,,,,,,,0,0,0,0,,,,,3,18,135,16,,,,,,,,,,,,,,,,z,0.18644618988,2018_Jan_22_1302,59.9721751564,perceptual-pilot,m002,
2,0,0,../data/raw/stimuli/pada0.wav,a,,t_left,burst,,,,,,,,,0,0,0,0,,,,,3,19,136,1,,,,,,,,,,,,,,,,slash,0.769858121872,2018_Jan_22_1302,59.9721751564,perceptual-pilot,m002,
38,5,2,../data/raw/stimuli/putu2.wav,u,,t_left,voicing,,,,,,,,,0,0,0,0,,,,,3,20,137,37,,,,,,,,,,,,,,,,slash,0.369512081146,2018_Jan_22_1302,59.9721751564,perceptual-pilot,m002,
30,0,0,../data/raw/stimuli/pudu0.wav,u,,t_left,burst,,,,,,,,,0,0,0,0,,,,,3,21,138,29,,,,,,,,,,,,,,,,slash,0.402955055237,2018_Jan_22_1302,59.9721751564,perceptual-pilot,m002,
39,5,3,../data/raw/stimuli/putu3.wav,u,,t_left,voicing,,,,,,,,,0,0,0,0,,,,,3,22,139,38,,,,,,,,,,,,,,,,slash,0.185998916626,2018_Jan_22_1302,59.9721751564,perceptual-pilot,m002,
18,2,0,../data/raw/stimuli/pidi2.wav,i,,t_left,burst,,,,,,,,,0,0,0,0,,,,,3,23,140,17,,,,,,,,,,,,,,,,slash,0.45228600502,2018_Jan_22_1302,59.9721751564,perceptual-pilot,m002,
7,5,0,../data/raw/stimuli/pada5.wav,a,,t_left,burst,,,,,,,,,0,0,0,0,,,,,3,24,141,6,,,,,,,,,,,,,,,,z,0.336188077927,2018_Jan_22_1302,59.9721751564,perceptual-pilot,m002,
1,0,5,../data/raw/stimuli/pada.wav,a,,t_left,confound,,,,,,,,,0,0,0,0,,,,,3,25,142,0,,,,,,,,,,,,,,,,slash,0.335589885712,2018_Jan_22_1302,59.9721751564,perceptual-pilot,m002,
8,5,0,../data/raw/stimuli/pata0.wav,a,,t_left,voicing,,,,,,,,,0,0,0,0,,,,,3,26,143,7,,,,,,,,,,,,,,,,z,0.253014087677,2018_Jan_22_1302,59.9721751564,perceptual-pilot,m002,
16,0,0,../data/raw/stimuli/pidi0.wav,i,,t_left,burst,,,,,,,,,0,0,0,0,,,,,3,27,144,15,,,,,,,,,,,,,,,,slash,0.519545078278,2018_Jan_22_1302,59.9721751564,perceptual-pilot,m002,
6,4,0,../data/raw/stimuli/pada4.wav,a,,t_left,burst,,,,,,,,,0,0,0,0,,,,,3,28,145,5,,,,,,,,,,,,,,,,z,0.583952903748,2018_Jan_22_1302,59.9721751564,perceptual-pilot,m002,
29,0,5,../data/raw/stimuli/pudu.wav,u,,t_left,confound,,,,,,,,,0,0,0,0,,,,,3,29,146,28,,,,,,,,,,,,,,,,slash,0.202766895294,2018_Jan_22_1302,59.9721751564,perceptual-pilot,m002,
31,1,0,../data/raw/stimuli/pudu1.wav,u,,t_left,burst,,,,,,,,,0,0,0,0,,,,,3,30,147,30,,,,,,,,,,,,,,,,slash,0.401944160461,2018_Jan_22_1302,59.9721751564,perceptual-pilot,m002,
13,5,5,../data/raw/stimuli/pata5.wav,a,,t_left,voicing,,,,,,,,,0,0,0,0,,,,,3,31,148,12,,,,,,,,,,,,,,,,slash,0.418807983398,2018_Jan_22_1302,59.9721751564,perceptual-pilot,m002,
20,4,0,../data/raw/stimuli/pidi4.wav,i,,t_left,burst,,,,,,,,,0,0,0,0,,,,,3,32,149,19,,,,,,,,,,,,,,,,z,0.169445991516,2018_Jan_22_1302,59.9721751564,perceptual-pilot,m002,
4,2,0,../data/raw/stimuli/pada2.wav,a,,t_left,burst,,,,,,,,,0,0,0,0,,,,,3,33,150,3,,,,,,,,,,,,,,,,slash,0.186127901077,2018_Jan_22_1302,59.9721751564,perceptual-pilot,m002,
33,3,0,../data/raw/stimuli/pudu3.wav,u,,t_left,burst,,,,,,,,,0,0,0,0,,,,,3,34,151,32,,,,,,,,,,,,,,,,slash,0.534214019775,2018_Jan_22_1302,59.9721751564,perceptual-pilot,m002,
3,1,0,../data/raw/stimuli/pada1.wav,a,,t_left,burst,,,,,,,,,0,0,0,0,,,,,3,35,152,2,,,,,,,,,,,,,,,,slash,0.585863828659,2018_Jan_22_1302,59.9721751564,perceptual-pilot,m002,
24,5,2,../data/raw/stimuli/piti2.wav,i,,t_left,voicing,,,,,,,,,0,0,0,0,,,,,3,36,153,23,,,,,,,,,,,,,,,,z,0.333853006363,2018_Jan_22_1302,59.9721751564,perceptual-pilot,m002,
12,5,4,../data/raw/stimuli/pata4.wav,a,,t_left,voicing,,,,,,,,,0,0,0,0,,,,,3,37,154,11,,,,,,,,,,,,,,,,slash,0.219399929047,2018_Jan_22_1302,59.9721751564,perceptual-pilot,m002,
37,5,1,../data/raw/stimuli/putu1.wav,u,,t_left,voicing,,,,,,,,,0,0,0,0,,,,,3,38,155,36,,,,,,,,,,,,,,,,slash,0.28486084938,2018_Jan_22_1302,59.9721751564,perceptual-pilot,m002,
35,5,0,../data/raw/stimuli/pudu5.wav,u,,t_left,burst,,,,,,,,,0,0,0,0,,,,,4,0,156,34,,,,,,,,,,,,,,,,slash,0.534121990204,2018_Jan_22_1302,59.9721751564,perceptual-pilot,m002,
17,1,0,../data/raw/stimuli/pidi1.wav,i,,t_left,burst,,,,,,,,,0,0,0,0,,,,,4,1,157,16,,,,,,,,,,,,,,,,z,0.468783140182,2018_Jan_22_1302,59.9721751564,perceptual-pilot,m002,
14,5,6,../data/raw/stimuli/pata6.wav,a,,t_left,voicing,,,,,,,,,0,0,0,0,,,,,4,2,158,13,,,,,,,,,,,,,,,,slash,0.217046022415,2018_Jan_22_1302,59.9721751564,perceptual-pilot,m002,
26,5,4,../data/raw/stimuli/piti4.wav,i,,t_left,voicing,,,,,,,,,0,0,0,0,,,,,4,3,159,25,,,,,,,,,,,,,,,,slash,0.386543989182,2018_Jan_22_1302,59.9721751564,perceptual-pilot,m002,
29,0,5,../data/raw/stimuli/pudu.wav,u,,t_left,confound,,,,,,,,,0,0,0,0,,,,,4,4,160,28,,,,,,,,,,,,,,,,slash,0.368921041489,2018_Jan_22_1302,59.9721751564,perceptual-pilot,m002,
3,1,0,../data/raw/stimuli/pada1.wav,a,,t_left,burst,,,,,,,,,0,0,0,0,,,,,4,5,161,2,,,,,,,,,,,,,,,,slash,0.569505929947,2018_Jan_22_1302,59.9721751564,perceptual-pilot,m002,
39,5,3,../data/raw/stimuli/putu3.wav,u,,t_left,voicing,,,,,,,,,0,0,0,0,,,,,4,6,162,38,,,,,,,,,,,,,,,,slash,0.252943992615,2018_Jan_22_1302,59.9721751564,perceptual-pilot,m002,
6,4,0,../data/raw/stimuli/pada4.wav,a,,t_left,burst,,,,,,,,,0,0,0,0,,,,,4,7,163,5,,,,,,,,,,,,,,,,z,0.41726899147,2018_Jan_22_1302,59.9721751564,perceptual-pilot,m002,
20,4,0,../data/raw/stimuli/pidi4.wav,i,,t_left,burst,,,,,,,,,0,0,0,0,,,,,4,8,164,19,,,,,,,,,,,,,,,,z,0.352566003799,2018_Jan_22_1302,59.9721751564,perceptual-pilot,m002,
15,0,5,../data/raw/stimuli/pidi.wav,i,,t_left,confound,,,,,,,,,0,0,0,0,,,,,4,9,165,14,,,,,,,,,,,,,,,,slash,0.169361114502,2018_Jan_22_1302,59.9721751564,perceptual-pilot,m002,
30,0,0,../data/raw/stimuli/pudu0.wav,u,,t_left,burst,,,,,,,,,0,0,0,0,,,,,4,10,166,29,,,,,,,,,,,,,,,,slash,0.26934504509,2018_Jan_22_1302,59.9721751564,perceptual-pilot,m002,
8,5,0,../data/raw/stimuli/pata0.wav,a,,t_left,voicing,,,,,,,,,0,0,0,0,,,,,4,11,167,7,,,,,,,,,,,,,,,,z,0.251415014267,2018_Jan_22_1302,59.9721751564,perceptual-pilot,m002,
12,5,4,../data/raw/stimuli/pata4.wav,a,,t_left,voicing,,,,,,,,,0,0,0,0,,,,,4,12,168,11,,,,,,,,,,,,,,,,slash,0.302849054337,2018_Jan_22_1302,59.9721751564,perceptual-pilot,m002,
36,5,0,../data/raw/stimuli/putu0.wav,u,,t_left,voicing,,,,,,,,,0,0,0,0,,,,,4,13,169,35,,,,,,,,,,,,,,,,z,0.653097867966,2018_Jan_22_1302,59.9721751564,perceptual-pilot,m002,
38,5,2,../data/raw/stimuli/putu2.wav,u,,t_left,voicing,,,,,,,,,0,0,0,0,,,,,4,14,170,37,,,,,,,,,,,,,,,,slash,0.102931976318,2018_Jan_22_1302,59.9721751564,perceptual-pilot,m002,
13,5,5,../data/raw/stimuli/pata5.wav,a,,t_left,voicing,,,,,,,,,0,0,0,0,,,,,4,15,171,12,,,,,,,,,,,,,,,,slash,0.38488817215,2018_Jan_22_1302,59.9721751564,perceptual-pilot,m002,
19,3,0,../data/raw/stimuli/pidi3.wav,i,,t_left,burst,,,,,,,,,0,0,0,0,,,,,4,16,172,18,,,,,,,,,,,,,,,,z,0.202365875244,2018_Jan_22_1302,59.9721751564,perceptual-pilot,m002,
22,5,0,../data/raw/stimuli/piti0.wav,i,,t_left,voicing,,,,,,,,,0,0,0,0,,,,,4,17,173,21,,,,,,,,,,,,,,,,z,0.535452842712,2018_Jan_22_1302,59.9721751564,perceptual-pilot,m002,
9,5,1,../data/raw/stimuli/pata1.wav,a,,t_left,voicing,,,,,,,,,0,0,0,0,,,,,4,18,174,8,,,,,,,,,,,,,,,,z,0.352968931198,2018_Jan_22_1302,59.9721751564,perceptual-pilot,m002,
25,5,3,../data/raw/stimuli/piti3.wav,i,,t_left,voicing,,,,,,,,,0,0,0,0,,,,,4,19,175,24,,,,,,,,,,,,,,,,slash,0.135450839996,2018_Jan_22_1302,59.9721751564,perceptual-pilot,m002,
18,2,0,../data/raw/stimuli/pidi2.wav,i,,t_left,burst,,,,,,,,,0,0,0,0,,,,,4,20,176,17,,,,,,,,,,,,,,,,slash,0.486099004745,2018_Jan_22_1302,59.9721751564,perceptual-pilot,m002,
1,0,5,../data/raw/stimuli/pada.wav,a,,t_left,confound,,,,,,,,,0,0,0,0,,,,,4,21,177,0,,,,,,,,,,,,,,,,slash,0.336117982864,2018_Jan_22_1302,59.9721751564,perceptual-pilot,m002,
32,2,0,../data/raw/stimuli/pudu2.wav,u,,t_left,burst,,,,,,,,,0,0,0,0,,,,,4,22,178,31,,,,,,,,,,,,,,,,slash,0.218552112579,2018_Jan_22_1302,59.9721751564,perceptual-pilot,m002,
24,5,2,../data/raw/stimuli/piti2.wav,i,,t_left,voicing,,,,,,,,,0,0,0,0,,,,,4,23,179,23,,,,,,,,,,,,,,,,z,0.218628883362,2018_Jan_22_1302,59.9721751564,perceptual-pilot,m002,
10,5,2,../data/raw/stimuli/pata2.wav,a,,t_left,voicing,,,,,,,,,0,0,0,0,,,,,4,24,180,9,,,,,,,,,,,,,,,,slash,0.169317960739,2018_Jan_22_1302,59.9721751564,perceptual-pilot,m002,
4,2,0,../data/raw/stimuli/pada2.wav,a,,t_left,burst,,,,,,,,,0,0,0,0,,,,,4,25,181,3,,,,,,,,,,,,,,,,z,0.753062009811,2018_Jan_22_1302,59.9721751564,perceptual-pilot,m002,
11,5,3,../data/raw/stimuli/pata3.wav,a,,t_left,voicing,,,,,,,,,0,0,0,0,,,,,4,26,182,10,,,,,,,,,,,,,,,,z,0.569609880447,2018_Jan_22_1302,59.9721751564,perceptual-pilot,m002,
31,1,0,../data/raw/stimuli/pudu1.wav,u,,t_left,burst,,,,,,,,,0,0,0,0,,,,,4,27,183,30,,,,,,,,,,,,,,,,slash,0.76753783226,2018_Jan_22_1302,59.9721751564,perceptual-pilot,m002,
5,3,0,../data/raw/stimuli/pada3.wav,a,,t_left,burst,,,,,,,,,0,0,0,0,,,,,4,28,184,4,,,,,,,,,,,,,,,,z,0.302828073502,2018_Jan_22_1302,59.9721751564,perceptual-pilot,m002,
23,5,1,../data/raw/stimuli/piti1.wav,i,,t_left,voicing,,,,,,,,,0,0,0,0,,,,,4,29,185,22,,,,,,,,,,,,,,,,z,0.269353151321,2018_Jan_22_1302,59.9721751564,perceptual-pilot,m002,
27,5,5,../data/raw/stimuli/piti5.wav,i,,t_left,voicing,,,,,,,,,0,0,0,0,,,,,4,30,186,26,,,,,,,,,,,,,,,,slash,0.31894493103,2018_Jan_22_1302,59.9721751564,perceptual-pilot,m002,
16,0,0,../data/raw/stimuli/pidi0.wav,i,,t_left,burst,,,,,,,,,0,0,0,0,,,,,4,31,187,15,,,,,,,,,,,,,,,,slash,0.385648012161,2018_Jan_22_1302,59.9721751564,perceptual-pilot,m002,
33,3,0,../data/raw/stimuli/pudu3.wav,u,,t_left,burst,,,,,,,,,0,0,0,0,,,,,4,32,188,32,,,,,,,,,,,,,,,,z,1.22010207176,2018_Jan_22_1302,59.9721751564,perceptual-pilot,m002,
28,5,6,../data/raw/stimuli/piti6.wav,i,,t_left,voicing,,,,,,,,,0,0,0,0,,,,,4,33,189,27,,,,,,,,,,,,,,,,slash,0.302971124649,2018_Jan_22_1302,59.9721751564,perceptual-pilot,m002,
7,5,0,../data/raw/stimuli/pada5.wav,a,,t_left,burst,,,,,,,,,0,0,0,0,,,,,4,34,190,6,,,,,,,,,,,,,,,,z,0.219213962555,2018_Jan_22_1302,59.9721751564,perceptual-pilot,m002,
2,0,0,../data/raw/stimuli/pada0.wav,a,,t_left,burst,,,,,,,,,0,0,0,0,,,,,4,35,191,1,,,,,,,,,,,,,,,,slash,0.583745002747,2018_Jan_22_1302,59.9721751564,perceptual-pilot,m002,
37,5,1,../data/raw/stimuli/putu1.wav,u,,t_left,voicing,,,,,,,,,0,0,0,0,,,,,4,36,192,36,,,,,,,,,,,,,,,,slash,1.53764009476,2018_Jan_22_1302,59.9721751564,perceptual-pilot,m002,
34,4,0,../data/raw/stimuli/pudu4.wav,u,,t_left,burst,,,,,,,,,0,0,0,0,,,,,4,37,193,33,,,,,,,,,,,,,,,,z,1.35332107544,2018_Jan_22_1302,59.9721751564,perceptual-pilot,m002,
21,5,0,../data/raw/stimuli/pidi5.wav,i,,t_left,burst,,,,,,,,,0,0,0,0,,,,,4,38,194,20,,,,,,,,,,,,,,,,z,0.35040807724,2018_Jan_22_1302,59.9721751564,perceptual-pilot,m002,
,,,,,,,,,,,,,,,,0,0,0,0,,,,,,,,,,,,,,,,,,,,,,,,,,2018_Jan_22_1302,59.9721751564,perceptual-pilot,m002,
